#
# Results on Tue, 14 Jun 2022 16:22:25 GMT
# USER AGENT: Mozilla/5.0 (Windows NT 10.0; Win64; x64) AppleWebKit/537.36 (KHTML, like Gecko) Chrome/102.0.0.0 Safari/537.36
# Design number was non-random = 0
#
# Columns below this comment are as follows:
# 1. Results reception time.
# 2. MD5 hash of participant's IP address.
# 3. Controller name.
# 4. Order number of item.
# 5. Inner element number.
# 6. Label.
# 7. Latin Square Group.
# 8. Field name.
# 9. Field value.
1655223745,e40e9e6f37e7aea23a76e0492f7c02bc,Form,1,0,consent,NULL,consent,yes
1655223745,e40e9e6f37e7aea23a76e0492f7c02bc,Form,1,0,consent,NULL,_REACTION_TIME_,21147
1655223745,e40e9e6f37e7aea23a76e0492f7c02bc,Form,4,0,introfirst,NULL,ID,5b6142d1f5bc590001184814
1655223745,e40e9e6f37e7aea23a76e0492f7c02bc,Form,4,0,introfirst,NULL,age,47
1655223745,e40e9e6f37e7aea23a76e0492f7c02bc,Form,4,0,introfirst,NULL,natlang,English
1655223745,e40e9e6f37e7aea23a76e0492f7c02bc,Form,4,0,introfirst,NULL,state,Indiana
1655223745,e40e9e6f37e7aea23a76e0492f7c02bc,Form,4,0,introfirst,NULL,parentlang,English
1655223745,e40e9e6f37e7aea23a76e0492f7c02bc,Form,4,0,introfirst,NULL,domlang,English
1655223745,e40e9e6f37e7aea23a76e0492f7c02bc,Form,4,0,introfirst,NULL,otherlang,No
1655223745,e40e9e6f37e7aea23a76e0492f7c02bc,Form,4,0,introfirst,NULL,gender,female
1655223745,e40e9e6f37e7aea23a76e0492f7c02bc,Form,4,0,introfirst,NULL,_REACTION_TIME_,25608
1655223745,e40e9e6f37e7aea23a76e0492f7c02bc,Form,5,0,intro,NULL,question1,one
1655223745,e40e9e6f37e7aea23a76e0492f7c02bc,Form,5,0,intro,NULL,_REACTION_TIME_,34019
1655223745,e40e9e6f37e7aea23a76e0492f7c02bc,Form,27,0,ESI,21,blank1,80
1655223745,e40e9e6f37e7aea23a76e0492f7c02bc,Form,27,0,ESI,21,blank2,140
1655223745,e40e9e6f37e7aea23a76e0492f7c02bc,Form,27,0,ESI,21,_REACTION_TIME_,14992
1655223745,e40e9e6f37e7aea23a76e0492f7c02bc,Form,33,0,ESI,27,blank1,36
1655223745,e40e9e6f37e7aea23a76e0492f7c02bc,Form,33,0,ESI,27,blank2,60
1655223745,e40e9e6f37e7aea23a76e0492f7c02bc,Form,33,0,ESI,27,_REACTION_TIME_,25609
1655223745,e40e9e6f37e7aea23a76e0492f7c02bc,Form,44,0,ESI,38,blank1,80
1655223745,e40e9e6f37e7aea23a76e0492f7c02bc,Form,44,0,ESI,38,blank2,104
1655223745,e40e9e6f37e7aea23a76e0492f7c02bc,Form,44,0,ESI,38,_REACTION_TIME_,34281
1655223745,e40e9e6f37e7aea23a76e0492f7c02bc,Form,36,0,ESI,30,blank1,300
1655223745,e40e9e6f37e7aea23a76e0492f7c02bc,Form,36,0,ESI,30,blank2,400
1655223745,e40e9e6f37e7aea23a76e0492f7c02bc,Form,36,0,ESI,30,_REACTION_TIME_,19404
1655223745,e40e9e6f37e7aea23a76e0492f7c02bc,Form,19,0,ESI,13,blank1,5
1655223745,e40e9e6f37e7aea23a76e0492f7c02bc,Form,19,0,ESI,13,blank2,15
1655223745,e40e9e6f37e7aea23a76e0492f7c02bc,Form,19,0,ESI,13,_REACTION_TIME_,15291
1655223745,e40e9e6f37e7aea23a76e0492f7c02bc,Form,20,0,ESI,14,blank1,230
1655223745,e40e9e6f37e7aea23a76e0492f7c02bc,Form,20,0,ESI,14,blank2,275
1655223745,e40e9e6f37e7aea23a76e0492f7c02bc,Form,20,0,ESI,14,_REACTION_TIME_,20253
1655223745,e40e9e6f37e7aea23a76e0492f7c02bc,Form,62,0,ESI,56,blank1,8000
1655223745,e40e9e6f37e7aea23a76e0492f7c02bc,Form,62,0,ESI,56,blank2,12000
1655223745,e40e9e6f37e7aea23a76e0492f7c02bc,Form,62,0,ESI,56,_REACTION_TIME_,46029
1655223745,e40e9e6f37e7aea23a76e0492f7c02bc,Form,16,0,ESI,10,blank1,125
1655223745,e40e9e6f37e7aea23a76e0492f7c02bc,Form,16,0,ESI,10,blank2,175
1655223745,e40e9e6f37e7aea23a76e0492f7c02bc,Form,16,0,ESI,10,_REACTION_TIME_,30962
1655223745,e40e9e6f37e7aea23a76e0492f7c02bc,Form,13,0,ESI,7,blank1,125
1655223745,e40e9e6f37e7aea23a76e0492f7c02bc,Form,13,0,ESI,7,blank2,150
1655223745,e40e9e6f37e7aea23a76e0492f7c02bc,Form,13,0,ESI,7,_REACTION_TIME_,11617
1655223745,e40e9e6f37e7aea23a76e0492f7c02bc,Form,66,0,ESI,60,blank1,75
1655223745,e40e9e6f37e7aea23a76e0492f7c02bc,Form,66,0,ESI,60,blank2,115
1655223745,e40e9e6f37e7aea23a76e0492f7c02bc,Form,66,0,ESI,60,_REACTION_TIME_,19581
1655223745,e40e9e6f37e7aea23a76e0492f7c02bc,Form,55,0,ESI,49,blank1,75
1655223745,e40e9e6f37e7aea23a76e0492f7c02bc,Form,55,0,ESI,49,blank2,120
1655223745,e40e9e6f37e7aea23a76e0492f7c02bc,Form,55,0,ESI,49,_REACTION_TIME_,13825
1655223745,e40e9e6f37e7aea23a76e0492f7c02bc,Form,26,0,ESI,20,blank1,650
1655223745,e40e9e6f37e7aea23a76e0492f7c02bc,Form,26,0,ESI,20,blank2,1000
1655223745,e40e9e6f37e7aea23a76e0492f7c02bc,Form,26,0,ESI,20,_REACTION_TIME_,14435
1655223745,e40e9e6f37e7aea23a76e0492f7c02bc,Form,51,0,ESI,45,blank1,32
1655223745,e40e9e6f37e7aea23a76e0492f7c02bc,Form,51,0,ESI,45,blank2,125
1655223745,e40e9e6f37e7aea23a76e0492f7c02bc,Form,51,0,ESI,45,_REACTION_TIME_,24579
1655223745,e40e9e6f37e7aea23a76e0492f7c02bc,Form,31,0,ESI,25,blank1,75
1655223745,e40e9e6f37e7aea23a76e0492f7c02bc,Form,31,0,ESI,25,blank2,125
1655223745,e40e9e6f37e7aea23a76e0492f7c02bc,Form,31,0,ESI,25,_REACTION_TIME_,8682
1655223745,e40e9e6f37e7aea23a76e0492f7c02bc,Form,32,0,ESI,26,blank1,170
1655223745,e40e9e6f37e7aea23a76e0492f7c02bc,Form,32,0,ESI,26,blank2,200
1655223745,e40e9e6f37e7aea23a76e0492f7c02bc,Form,32,0,ESI,26,_REACTION_TIME_,11670
1655223745,e40e9e6f37e7aea23a76e0492f7c02bc,Form,40,0,ESI,34,blank1,14
1655223745,e40e9e6f37e7aea23a76e0492f7c02bc,Form,40,0,ESI,34,blank2,19
1655223745,e40e9e6f37e7aea23a76e0492f7c02bc,Form,40,0,ESI,34,_REACTION_TIME_,20182
1655223745,e40e9e6f37e7aea23a76e0492f7c02bc,Form,56,0,ESI,50,blank1,200
1655223745,e40e9e6f37e7aea23a76e0492f7c02bc,Form,56,0,ESI,50,blank2,400
1655223745,e40e9e6f37e7aea23a76e0492f7c02bc,Form,56,0,ESI,50,_REACTION_TIME_,28332
1655223745,e40e9e6f37e7aea23a76e0492f7c02bc,Form,53,0,ESI,47,blank1,0
1655223745,e40e9e6f37e7aea23a76e0492f7c02bc,Form,53,0,ESI,47,blank2,79
1655223745,e40e9e6f37e7aea23a76e0492f7c02bc,Form,53,0,ESI,47,_REACTION_TIME_,24660
1655223745,e40e9e6f37e7aea23a76e0492f7c02bc,Form,54,0,ESI,48,blank1,186
1655223745,e40e9e6f37e7aea23a76e0492f7c02bc,Form,54,0,ESI,48,blank2,250
1655223745,e40e9e6f37e7aea23a76e0492f7c02bc,Form,54,0,ESI,48,_REACTION_TIME_,11299
1655223745,e40e9e6f37e7aea23a76e0492f7c02bc,Form,37,0,ESI,31,blank1,44
1655223745,e40e9e6f37e7aea23a76e0492f7c02bc,Form,37,0,ESI,31,blank2,75
1655223745,e40e9e6f37e7aea23a76e0492f7c02bc,Form,37,0,ESI,31,_REACTION_TIME_,17920
1655223745,e40e9e6f37e7aea23a76e0492f7c02bc,Form,68,0,filler2,NULL,blank1,51
1655223745,e40e9e6f37e7aea23a76e0492f7c02bc,Form,68,0,filler2,NULL,blank2,100
1655223745,e40e9e6f37e7aea23a76e0492f7c02bc,Form,68,0,filler2,NULL,_REACTION_TIME_,11722
1655223745,e40e9e6f37e7aea23a76e0492f7c02bc,Form,21,0,ESI,15,blank1,32
1655223745,e40e9e6f37e7aea23a76e0492f7c02bc,Form,21,0,ESI,15,blank2,130
1655223745,e40e9e6f37e7aea23a76e0492f7c02bc,Form,21,0,ESI,15,_REACTION_TIME_,17549
1655223745,e40e9e6f37e7aea23a76e0492f7c02bc,Form,46,0,ESI,40,blank1,100
1655223745,e40e9e6f37e7aea23a76e0492f7c02bc,Form,46,0,ESI,40,blank2,199
1655223745,e40e9e6f37e7aea23a76e0492f7c02bc,Form,46,0,ESI,40,_REACTION_TIME_,17663
1655223745,e40e9e6f37e7aea23a76e0492f7c02bc,Form,42,0,ESI,36,blank1,75
1655223745,e40e9e6f37e7aea23a76e0492f7c02bc,Form,42,0,ESI,36,blank2,106
1655223745,e40e9e6f37e7aea23a76e0492f7c02bc,Form,42,0,ESI,36,_REACTION_TIME_,13466
1655223745,e40e9e6f37e7aea23a76e0492f7c02bc,Form,39,0,ESI,33,blank1,21
1655223745,e40e9e6f37e7aea23a76e0492f7c02bc,Form,39,0,ESI,33,blank2,35
1655223745,e40e9e6f37e7aea23a76e0492f7c02bc,Form,39,0,ESI,33,_REACTION_TIME_,12031
1655223745,e40e9e6f37e7aea23a76e0492f7c02bc,Form,17,0,ESI,11,blank1,1
1655223745,e40e9e6f37e7aea23a76e0492f7c02bc,Form,17,0,ESI,11,blank2,50
1655223745,e40e9e6f37e7aea23a76e0492f7c02bc,Form,17,0,ESI,11,_REACTION_TIME_,17751
1655223745,e40e9e6f37e7aea23a76e0492f7c02bc,Form,63,0,ESI,57,blank1,175
1655223745,e40e9e6f37e7aea23a76e0492f7c02bc,Form,63,0,ESI,57,blank2,185
1655223745,e40e9e6f37e7aea23a76e0492f7c02bc,Form,63,0,ESI,57,_REACTION_TIME_,17918
1655223745,e40e9e6f37e7aea23a76e0492f7c02bc,Form,34,0,ESI,28,blank1,200
1655223745,e40e9e6f37e7aea23a76e0492f7c02bc,Form,34,0,ESI,28,blank2,300
1655223745,e40e9e6f37e7aea23a76e0492f7c02bc,Form,34,0,ESI,28,_REACTION_TIME_,12216
1655223745,e40e9e6f37e7aea23a76e0492f7c02bc,Form,48,0,ESI,42,blank1,80
1655223745,e40e9e6f37e7aea23a76e0492f7c02bc,Form,48,0,ESI,42,blank2,200
1655223745,e40e9e6f37e7aea23a76e0492f7c02bc,Form,48,0,ESI,42,_REACTION_TIME_,12308
1655223745,e40e9e6f37e7aea23a76e0492f7c02bc,Form,8,0,ESI,2,blank1,300
1655223745,e40e9e6f37e7aea23a76e0492f7c02bc,Form,8,0,ESI,2,blank2,350
1655223745,e40e9e6f37e7aea23a76e0492f7c02bc,Form,8,0,ESI,2,_REACTION_TIME_,12932
1655223745,e40e9e6f37e7aea23a76e0492f7c02bc,Form,58,0,ESI,52,blank1,0
1655223745,e40e9e6f37e7aea23a76e0492f7c02bc,Form,58,0,ESI,52,blank2,80
1655223745,e40e9e6f37e7aea23a76e0492f7c02bc,Form,58,0,ESI,52,_REACTION_TIME_,9065
1655223745,e40e9e6f37e7aea23a76e0492f7c02bc,Form,47,0,ESI,41,blank1,0
1655223745,e40e9e6f37e7aea23a76e0492f7c02bc,Form,47,0,ESI,41,blank2,79
1655223745,e40e9e6f37e7aea23a76e0492f7c02bc,Form,47,0,ESI,41,_REACTION_TIME_,9551
1655223745,e40e9e6f37e7aea23a76e0492f7c02bc,Form,50,0,ESI,44,blank1,16
1655223745,e40e9e6f37e7aea23a76e0492f7c02bc,Form,50,0,ESI,44,blank2,25
1655223745,e40e9e6f37e7aea23a76e0492f7c02bc,Form,50,0,ESI,44,_REACTION_TIME_,16181
1655223745,e40e9e6f37e7aea23a76e0492f7c02bc,Form,24,0,ESI,18,blank1,80
1655223745,e40e9e6f37e7aea23a76e0492f7c02bc,Form,24,0,ESI,18,blank2,120
1655223745,e40e9e6f37e7aea23a76e0492f7c02bc,Form,24,0,ESI,18,_REACTION_TIME_,8625
1655223745,e40e9e6f37e7aea23a76e0492f7c02bc,Form,9,0,ESI,3,blank1,250
1655223745,e40e9e6f37e7aea23a76e0492f7c02bc,Form,9,0,ESI,3,blank2,400
1655223745,e40e9e6f37e7aea23a76e0492f7c02bc,Form,9,0,ESI,3,_REACTION_TIME_,13836
1655223745,e40e9e6f37e7aea23a76e0492f7c02bc,Form,10,0,ESI,4,blank1,325
1655223745,e40e9e6f37e7aea23a76e0492f7c02bc,Form,10,0,ESI,4,blank2,370
1655223745,e40e9e6f37e7aea23a76e0492f7c02bc,Form,10,0,ESI,4,_REACTION_TIME_,15022
1655223745,e40e9e6f37e7aea23a76e0492f7c02bc,Form,12,0,ESI,6,blank1,10000
1655223745,e40e9e6f37e7aea23a76e0492f7c02bc,Form,12,0,ESI,6,blank2,11000
1655223745,e40e9e6f37e7aea23a76e0492f7c02bc,Form,12,0,ESI,6,_REACTION_TIME_,17015
1655223745,e40e9e6f37e7aea23a76e0492f7c02bc,Form,15,0,ESI,9,blank1,32
1655223745,e40e9e6f37e7aea23a76e0492f7c02bc,Form,15,0,ESI,9,blank2,115
1655223745,e40e9e6f37e7aea23a76e0492f7c02bc,Form,15,0,ESI,9,_REACTION_TIME_,11017
1655223745,e40e9e6f37e7aea23a76e0492f7c02bc,Form,11,0,ESI,5,blank1,1000
1655223745,e40e9e6f37e7aea23a76e0492f7c02bc,Form,11,0,ESI,5,blank2,2300
1655223745,e40e9e6f37e7aea23a76e0492f7c02bc,Form,11,0,ESI,5,_REACTION_TIME_,9265
1655223745,e40e9e6f37e7aea23a76e0492f7c02bc,Form,30,0,ESI,24,blank1,65
1655223745,e40e9e6f37e7aea23a76e0492f7c02bc,Form,30,0,ESI,24,blank2,90
1655223745,e40e9e6f37e7aea23a76e0492f7c02bc,Form,30,0,ESI,24,_REACTION_TIME_,15771
1655223745,e40e9e6f37e7aea23a76e0492f7c02bc,Form,28,0,ESI,22,blank1,80
1655223745,e40e9e6f37e7aea23a76e0492f7c02bc,Form,28,0,ESI,22,blank2,120
1655223745,e40e9e6f37e7aea23a76e0492f7c02bc,Form,28,0,ESI,22,_REACTION_TIME_,11226
1655223745,e40e9e6f37e7aea23a76e0492f7c02bc,Form,67,0,filler1,NULL,blank1,66
1655223745,e40e9e6f37e7aea23a76e0492f7c02bc,Form,67,0,filler1,NULL,blank2,95
1655223745,e40e9e6f37e7aea23a76e0492f7c02bc,Form,67,0,filler1,NULL,_REACTION_TIME_,11758
1655223745,e40e9e6f37e7aea23a76e0492f7c02bc,Form,60,0,ESI,54,blank1,0
1655223745,e40e9e6f37e7aea23a76e0492f7c02bc,Form,60,0,ESI,54,blank2,80
1655223745,e40e9e6f37e7aea23a76e0492f7c02bc,Form,60,0,ESI,54,_REACTION_TIME_,13769
1655223745,e40e9e6f37e7aea23a76e0492f7c02bc,Form,22,0,ESI,16,blank1,129
1655223745,e40e9e6f37e7aea23a76e0492f7c02bc,Form,22,0,ESI,16,blank2,175
1655223745,e40e9e6f37e7aea23a76e0492f7c02bc,Form,22,0,ESI,16,_REACTION_TIME_,11388
1655223745,e40e9e6f37e7aea23a76e0492f7c02bc,Form,49,0,ESI,43,blank1,1
1655223745,e40e9e6f37e7aea23a76e0492f7c02bc,Form,49,0,ESI,43,blank2,95
1655223745,e40e9e6f37e7aea23a76e0492f7c02bc,Form,49,0,ESI,43,_REACTION_TIME_,13336
1655223745,e40e9e6f37e7aea23a76e0492f7c02bc,Form,43,0,ESI,37,blank1,6336
1655223745,e40e9e6f37e7aea23a76e0492f7c02bc,Form,43,0,ESI,37,blank2,10000
1655223745,e40e9e6f37e7aea23a76e0492f7c02bc,Form,43,0,ESI,37,_REACTION_TIME_,16147
1655223745,e40e9e6f37e7aea23a76e0492f7c02bc,Form,45,0,ESI,39,blank1,113
1655223745,e40e9e6f37e7aea23a76e0492f7c02bc,Form,45,0,ESI,39,blank2,175
1655223745,e40e9e6f37e7aea23a76e0492f7c02bc,Form,45,0,ESI,39,_REACTION_TIME_,12806
1655223745,e40e9e6f37e7aea23a76e0492f7c02bc,Form,57,0,ESI,51,blank1,14533
1655223745,e40e9e6f37e7aea23a76e0492f7c02bc,Form,57,0,ESI,51,blank2,15000
1655223745,e40e9e6f37e7aea23a76e0492f7c02bc,Form,57,0,ESI,51,_REACTION_TIME_,15961
1655223745,e40e9e6f37e7aea23a76e0492f7c02bc,Form,29,0,ESI,23,blank1,100
1655223745,e40e9e6f37e7aea23a76e0492f7c02bc,Form,29,0,ESI,23,blank2,150
1655223745,e40e9e6f37e7aea23a76e0492f7c02bc,Form,29,0,ESI,23,_REACTION_TIME_,10382
1655223745,e40e9e6f37e7aea23a76e0492f7c02bc,Form,59,0,ESI,53,blank1,2500
1655223745,e40e9e6f37e7aea23a76e0492f7c02bc,Form,59,0,ESI,53,blank2,3200
1655223745,e40e9e6f37e7aea23a76e0492f7c02bc,Form,59,0,ESI,53,_REACTION_TIME_,11416
1655223745,e40e9e6f37e7aea23a76e0492f7c02bc,Form,14,0,ESI,8,blank1,325
1655223745,e40e9e6f37e7aea23a76e0492f7c02bc,Form,14,0,ESI,8,blank2,390
1655223745,e40e9e6f37e7aea23a76e0492f7c02bc,Form,14,0,ESI,8,_REACTION_TIME_,14161
1655223745,e40e9e6f37e7aea23a76e0492f7c02bc,Form,35,0,ESI,29,blank1,130
1655223745,e40e9e6f37e7aea23a76e0492f7c02bc,Form,35,0,ESI,29,blank2,134
1655223745,e40e9e6f37e7aea23a76e0492f7c02bc,Form,35,0,ESI,29,_REACTION_TIME_,10119
1655223745,e40e9e6f37e7aea23a76e0492f7c02bc,Form,64,0,ESI,58,blank1,0
1655223745,e40e9e6f37e7aea23a76e0492f7c02bc,Form,64,0,ESI,58,blank2,20
1655223745,e40e9e6f37e7aea23a76e0492f7c02bc,Form,64,0,ESI,58,_REACTION_TIME_,9565
1655223745,e40e9e6f37e7aea23a76e0492f7c02bc,Form,18,0,ESI,12,blank1,225
1655223745,e40e9e6f37e7aea23a76e0492f7c02bc,Form,18,0,ESI,12,blank2,275
1655223745,e40e9e6f37e7aea23a76e0492f7c02bc,Form,18,0,ESI,12,_REACTION_TIME_,11810
1655223745,e40e9e6f37e7aea23a76e0492f7c02bc,Form,61,0,ESI,55,blank1,1500
1655223745,e40e9e6f37e7aea23a76e0492f7c02bc,Form,61,0,ESI,55,blank2,1560
1655223745,e40e9e6f37e7aea23a76e0492f7c02bc,Form,61,0,ESI,55,_REACTION_TIME_,19648
1655223745,e40e9e6f37e7aea23a76e0492f7c02bc,Form,41,0,ESI,35,blank1,400
1655223745,e40e9e6f37e7aea23a76e0492f7c02bc,Form,41,0,ESI,35,blank2,500
1655223745,e40e9e6f37e7aea23a76e0492f7c02bc,Form,41,0,ESI,35,_REACTION_TIME_,15062
1655223745,e40e9e6f37e7aea23a76e0492f7c02bc,Form,23,0,ESI,17,blank1,400
1655223745,e40e9e6f37e7aea23a76e0492f7c02bc,Form,23,0,ESI,17,blank2,550
1655223745,e40e9e6f37e7aea23a76e0492f7c02bc,Form,23,0,ESI,17,_REACTION_TIME_,11943
1655223745,e40e9e6f37e7aea23a76e0492f7c02bc,Form,65,0,ESI,59,blank1,80
1655223745,e40e9e6f37e7aea23a76e0492f7c02bc,Form,65,0,ESI,59,blank2,100
1655223745,e40e9e6f37e7aea23a76e0492f7c02bc,Form,65,0,ESI,59,_REACTION_TIME_,9525
1655223745,e40e9e6f37e7aea23a76e0492f7c02bc,Form,52,0,ESI,46,blank1,57
1655223745,e40e9e6f37e7aea23a76e0492f7c02bc,Form,52,0,ESI,46,blank2,100
1655223745,e40e9e6f37e7aea23a76e0492f7c02bc,Form,52,0,ESI,46,_REACTION_TIME_,10281
1655223745,e40e9e6f37e7aea23a76e0492f7c02bc,Form,38,0,ESI,32,blank1,20
1655223745,e40e9e6f37e7aea23a76e0492f7c02bc,Form,38,0,ESI,32,blank2,39
1655223745,e40e9e6f37e7aea23a76e0492f7c02bc,Form,38,0,ESI,32,_REACTION_TIME_,12241
1655223745,e40e9e6f37e7aea23a76e0492f7c02bc,Form,7,0,ESI,1,blank1,35
1655223745,e40e9e6f37e7aea23a76e0492f7c02bc,Form,7,0,ESI,1,blank2,40
1655223745,e40e9e6f37e7aea23a76e0492f7c02bc,Form,7,0,ESI,1,_REACTION_TIME_,21781
1655223745,e40e9e6f37e7aea23a76e0492f7c02bc,Form,25,0,ESI,19,blank1,120
1655223745,e40e9e6f37e7aea23a76e0492f7c02bc,Form,25,0,ESI,19,blank2,145
1655223745,e40e9e6f37e7aea23a76e0492f7c02bc,Form,25,0,ESI,19,_REACTION_TIME_,9365
1655223745,e40e9e6f37e7aea23a76e0492f7c02bc,Form,69,0,filler3,NULL,blank1,4001
1655223745,e40e9e6f37e7aea23a76e0492f7c02bc,Form,69,0,filler3,NULL,blank2,6000
1655223745,e40e9e6f37e7aea23a76e0492f7c02bc,Form,69,0,filler3,NULL,_REACTION_TIME_,12002
1655223745,e40e9e6f37e7aea23a76e0492f7c02bc,Form,2,0,brexit,NULL,prolific_id,5b6142d1f5bc590001184814
1655223745,e40e9e6f37e7aea23a76e0492f7c02bc,Form,2,0,brexit,NULL,completion_code,634BCF6E
1655223745,e40e9e6f37e7aea23a76e0492f7c02bc,Form,2,0,brexit,NULL,_REACTION_TIME_,20208
#
# Results on Tue, 14 Jun 2022 16:29:58 GMT
# USER AGENT: Mozilla/5.0 (Windows NT 6.3; Win64; x64) AppleWebKit/537.36 (KHTML, like Gecko) Chrome/89.0.4389.114 Safari/537.36
# Design number was non-random = 0
#
# Columns below this comment are as follows:
# 1. Results reception time.
# 2. MD5 hash of participant's IP address.
# 3. Controller name.
# 4. Order number of item.
# 5. Inner element number.
# 6. Label.
# 7. Latin Square Group.
# 8. Field name.
# 9. Field value.
1655224198,80ae0546b8604ef8b997ad0a94cbf2fa,Form,1,0,consent,NULL,consent,yes
1655224198,80ae0546b8604ef8b997ad0a94cbf2fa,Form,1,0,consent,NULL,_REACTION_TIME_,29925
1655224198,80ae0546b8604ef8b997ad0a94cbf2fa,Form,4,0,introfirst,NULL,ID,59c9c8da5535800001a8e434
1655224198,80ae0546b8604ef8b997ad0a94cbf2fa,Form,4,0,introfirst,NULL,age,30
1655224198,80ae0546b8604ef8b997ad0a94cbf2fa,Form,4,0,introfirst,NULL,natlang,English
1655224198,80ae0546b8604ef8b997ad0a94cbf2fa,Form,4,0,introfirst,NULL,state,AL
1655224198,80ae0546b8604ef8b997ad0a94cbf2fa,Form,4,0,introfirst,NULL,parentlang,English
1655224198,80ae0546b8604ef8b997ad0a94cbf2fa,Form,4,0,introfirst,NULL,domlang,English
1655224198,80ae0546b8604ef8b997ad0a94cbf2fa,Form,4,0,introfirst,NULL,otherlang,n/a
1655224198,80ae0546b8604ef8b997ad0a94cbf2fa,Form,4,0,introfirst,NULL,gender,female
1655224198,80ae0546b8604ef8b997ad0a94cbf2fa,Form,4,0,introfirst,NULL,_REACTION_TIME_,17161
1655224198,80ae0546b8604ef8b997ad0a94cbf2fa,Form,5,0,intro,NULL,question1,one
1655224198,80ae0546b8604ef8b997ad0a94cbf2fa,Form,5,0,intro,NULL,_REACTION_TIME_,47330
1655224198,80ae0546b8604ef8b997ad0a94cbf2fa,Form,13,0,ESI,7,blank1,130
1655224198,80ae0546b8604ef8b997ad0a94cbf2fa,Form,13,0,ESI,7,blank2,145
1655224198,80ae0546b8604ef8b997ad0a94cbf2fa,Form,13,0,ESI,7,_REACTION_TIME_,9845
1655224198,80ae0546b8604ef8b997ad0a94cbf2fa,Form,15,0,ESI,9,blank1,110
1655224198,80ae0546b8604ef8b997ad0a94cbf2fa,Form,15,0,ESI,9,blank2,122
1655224198,80ae0546b8604ef8b997ad0a94cbf2fa,Form,15,0,ESI,9,_REACTION_TIME_,10390
1655224198,80ae0546b8604ef8b997ad0a94cbf2fa,Form,40,0,ESI,34,blank1,14
1655224198,80ae0546b8604ef8b997ad0a94cbf2fa,Form,40,0,ESI,34,blank2,20
1655224198,80ae0546b8604ef8b997ad0a94cbf2fa,Form,40,0,ESI,34,_REACTION_TIME_,14190
1655224198,80ae0546b8604ef8b997ad0a94cbf2fa,Form,49,0,ESI,43,blank1,85
1655224198,80ae0546b8604ef8b997ad0a94cbf2fa,Form,49,0,ESI,43,blank2,96
1655224198,80ae0546b8604ef8b997ad0a94cbf2fa,Form,49,0,ESI,43,_REACTION_TIME_,19701
1655224198,80ae0546b8604ef8b997ad0a94cbf2fa,Form,38,0,ESI,32,blank1,30
1655224198,80ae0546b8604ef8b997ad0a94cbf2fa,Form,38,0,ESI,32,blank2,39
1655224198,80ae0546b8604ef8b997ad0a94cbf2fa,Form,38,0,ESI,32,_REACTION_TIME_,10830
1655224198,80ae0546b8604ef8b997ad0a94cbf2fa,Form,58,0,ESI,52,blank1,60
1655224198,80ae0546b8604ef8b997ad0a94cbf2fa,Form,58,0,ESI,52,blank2,80
1655224198,80ae0546b8604ef8b997ad0a94cbf2fa,Form,58,0,ESI,52,_REACTION_TIME_,16245
1655224198,80ae0546b8604ef8b997ad0a94cbf2fa,Form,62,0,ESI,56,blank1,9600
1655224198,80ae0546b8604ef8b997ad0a94cbf2fa,Form,62,0,ESI,56,blank2,9700
1655224198,80ae0546b8604ef8b997ad0a94cbf2fa,Form,62,0,ESI,56,_REACTION_TIME_,17893
1655224198,80ae0546b8604ef8b997ad0a94cbf2fa,Form,47,0,ESI,41,blank1,60
1655224198,80ae0546b8604ef8b997ad0a94cbf2fa,Form,47,0,ESI,41,blank2,80
1655224198,80ae0546b8604ef8b997ad0a94cbf2fa,Form,47,0,ESI,41,_REACTION_TIME_,12838
1655224198,80ae0546b8604ef8b997ad0a94cbf2fa,Form,63,0,ESI,57,blank1,170
1655224198,80ae0546b8604ef8b997ad0a94cbf2fa,Form,63,0,ESI,57,blank2,185
1655224198,80ae0546b8604ef8b997ad0a94cbf2fa,Form,63,0,ESI,57,_REACTION_TIME_,12637
1655224198,80ae0546b8604ef8b997ad0a94cbf2fa,Form,37,0,ESI,31,blank1,44
1655224198,80ae0546b8604ef8b997ad0a94cbf2fa,Form,37,0,ESI,31,blank2,55
1655224198,80ae0546b8604ef8b997ad0a94cbf2fa,Form,37,0,ESI,31,_REACTION_TIME_,19054
1655224198,80ae0546b8604ef8b997ad0a94cbf2fa,Form,25,0,ESI,19,blank1,130
1655224198,80ae0546b8604ef8b997ad0a94cbf2fa,Form,25,0,ESI,19,blank2,140
1655224198,80ae0546b8604ef8b997ad0a94cbf2fa,Form,25,0,ESI,19,_REACTION_TIME_,13430
1655224198,80ae0546b8604ef8b997ad0a94cbf2fa,Form,39,0,ESI,33,blank1,25
1655224198,80ae0546b8604ef8b997ad0a94cbf2fa,Form,39,0,ESI,33,blank2,30
1655224198,80ae0546b8604ef8b997ad0a94cbf2fa,Form,39,0,ESI,33,_REACTION_TIME_,17662
1655224198,80ae0546b8604ef8b997ad0a94cbf2fa,Form,10,0,ESI,4,blank1,340
1655224198,80ae0546b8604ef8b997ad0a94cbf2fa,Form,10,0,ESI,4,blank2,350
1655224198,80ae0546b8604ef8b997ad0a94cbf2fa,Form,10,0,ESI,4,_REACTION_TIME_,15054
1655224198,80ae0546b8604ef8b997ad0a94cbf2fa,Form,35,0,ESI,29,blank1,130
1655224198,80ae0546b8604ef8b997ad0a94cbf2fa,Form,35,0,ESI,29,blank2,150
1655224198,80ae0546b8604ef8b997ad0a94cbf2fa,Form,35,0,ESI,29,_REACTION_TIME_,17302
1655224198,80ae0546b8604ef8b997ad0a94cbf2fa,Form,64,0,ESI,58,blank1,15
1655224198,80ae0546b8604ef8b997ad0a94cbf2fa,Form,64,0,ESI,58,blank2,20
1655224198,80ae0546b8604ef8b997ad0a94cbf2fa,Form,64,0,ESI,58,_REACTION_TIME_,11518
1655224198,80ae0546b8604ef8b997ad0a94cbf2fa,Form,31,0,ESI,25,blank1,110
1655224198,80ae0546b8604ef8b997ad0a94cbf2fa,Form,31,0,ESI,25,blank2,120
1655224198,80ae0546b8604ef8b997ad0a94cbf2fa,Form,31,0,ESI,25,_REACTION_TIME_,20764
1655224198,80ae0546b8604ef8b997ad0a94cbf2fa,Form,22,0,ESI,16,blank1,135
1655224198,80ae0546b8604ef8b997ad0a94cbf2fa,Form,22,0,ESI,16,blank2,150
1655224198,80ae0546b8604ef8b997ad0a94cbf2fa,Form,22,0,ESI,16,_REACTION_TIME_,10997
1655224198,80ae0546b8604ef8b997ad0a94cbf2fa,Form,50,0,ESI,44,blank1,15
1655224198,80ae0546b8604ef8b997ad0a94cbf2fa,Form,50,0,ESI,44,blank2,25
1655224198,80ae0546b8604ef8b997ad0a94cbf2fa,Form,50,0,ESI,44,_REACTION_TIME_,9990
1655224198,80ae0546b8604ef8b997ad0a94cbf2fa,Form,12,0,ESI,6,blank1,10000
1655224198,80ae0546b8604ef8b997ad0a94cbf2fa,Form,12,0,ESI,6,blank2,11000
1655224198,80ae0546b8604ef8b997ad0a94cbf2fa,Form,12,0,ESI,6,_REACTION_TIME_,15054
1655224198,80ae0546b8604ef8b997ad0a94cbf2fa,Form,68,0,filler2,NULL,blank1,50
1655224198,80ae0546b8604ef8b997ad0a94cbf2fa,Form,68,0,filler2,NULL,blank2,65
1655224198,80ae0546b8604ef8b997ad0a94cbf2fa,Form,68,0,filler2,NULL,_REACTION_TIME_,13566
1655224198,80ae0546b8604ef8b997ad0a94cbf2fa,Form,54,0,ESI,48,blank1,185
1655224198,80ae0546b8604ef8b997ad0a94cbf2fa,Form,54,0,ESI,48,blank2,200
1655224198,80ae0546b8604ef8b997ad0a94cbf2fa,Form,54,0,ESI,48,_REACTION_TIME_,8566
1655224198,80ae0546b8604ef8b997ad0a94cbf2fa,Form,18,0,ESI,12,blank1,230
1655224198,80ae0546b8604ef8b997ad0a94cbf2fa,Form,18,0,ESI,12,blank2,240
1655224198,80ae0546b8604ef8b997ad0a94cbf2fa,Form,18,0,ESI,12,_REACTION_TIME_,10446
1655224198,80ae0546b8604ef8b997ad0a94cbf2fa,Form,59,0,ESI,53,blank1,2000
1655224198,80ae0546b8604ef8b997ad0a94cbf2fa,Form,59,0,ESI,53,blank2,2500
1655224198,80ae0546b8604ef8b997ad0a94cbf2fa,Form,59,0,ESI,53,_REACTION_TIME_,13646
1655224198,80ae0546b8604ef8b997ad0a94cbf2fa,Form,36,0,ESI,30,blank1,340
1655224198,80ae0546b8604ef8b997ad0a94cbf2fa,Form,36,0,ESI,30,blank2,360
1655224198,80ae0546b8604ef8b997ad0a94cbf2fa,Form,36,0,ESI,30,_REACTION_TIME_,11878
1655224198,80ae0546b8604ef8b997ad0a94cbf2fa,Form,7,0,ESI,1,blank1,35
1655224198,80ae0546b8604ef8b997ad0a94cbf2fa,Form,7,0,ESI,1,blank2,38
1655224198,80ae0546b8604ef8b997ad0a94cbf2fa,Form,7,0,ESI,1,_REACTION_TIME_,17397
1655224198,80ae0546b8604ef8b997ad0a94cbf2fa,Form,20,0,ESI,14,blank1,235
1655224198,80ae0546b8604ef8b997ad0a94cbf2fa,Form,20,0,ESI,14,blank2,260
1655224198,80ae0546b8604ef8b997ad0a94cbf2fa,Form,20,0,ESI,14,_REACTION_TIME_,10102
1655224198,80ae0546b8604ef8b997ad0a94cbf2fa,Form,55,0,ESI,49,blank1,110
1655224198,80ae0546b8604ef8b997ad0a94cbf2fa,Form,55,0,ESI,49,blank2,116
1655224198,80ae0546b8604ef8b997ad0a94cbf2fa,Form,55,0,ESI,49,_REACTION_TIME_,10254
1655224198,80ae0546b8604ef8b997ad0a94cbf2fa,Form,8,0,ESI,2,blank1,320
1655224198,80ae0546b8604ef8b997ad0a94cbf2fa,Form,8,0,ESI,2,blank2,340
1655224198,80ae0546b8604ef8b997ad0a94cbf2fa,Form,8,0,ESI,2,_REACTION_TIME_,12390
1655224198,80ae0546b8604ef8b997ad0a94cbf2fa,Form,45,0,ESI,39,blank1,130
1655224198,80ae0546b8604ef8b997ad0a94cbf2fa,Form,45,0,ESI,39,blank2,150
1655224198,80ae0546b8604ef8b997ad0a94cbf2fa,Form,45,0,ESI,39,_REACTION_TIME_,11550
1655224198,80ae0546b8604ef8b997ad0a94cbf2fa,Form,61,0,ESI,55,blank1,1300
1655224198,80ae0546b8604ef8b997ad0a94cbf2fa,Form,61,0,ESI,55,blank2,1560
1655224198,80ae0546b8604ef8b997ad0a94cbf2fa,Form,61,0,ESI,55,_REACTION_TIME_,12471
1655224198,80ae0546b8604ef8b997ad0a94cbf2fa,Form,16,0,ESI,10,blank1,130
1655224198,80ae0546b8604ef8b997ad0a94cbf2fa,Form,16,0,ESI,10,blank2,140
1655224198,80ae0546b8604ef8b997ad0a94cbf2fa,Form,16,0,ESI,10,_REACTION_TIME_,11053
1655224198,80ae0546b8604ef8b997ad0a94cbf2fa,Form,29,0,ESI,23,blank1,120
1655224198,80ae0546b8604ef8b997ad0a94cbf2fa,Form,29,0,ESI,23,blank2,134
1655224198,80ae0546b8604ef8b997ad0a94cbf2fa,Form,29,0,ESI,23,_REACTION_TIME_,13246
1655224198,80ae0546b8604ef8b997ad0a94cbf2fa,Form,30,0,ESI,24,blank1,66
1655224198,80ae0546b8604ef8b997ad0a94cbf2fa,Form,30,0,ESI,24,blank2,70
1655224198,80ae0546b8604ef8b997ad0a94cbf2fa,Form,30,0,ESI,24,_REACTION_TIME_,9333
1655224198,80ae0546b8604ef8b997ad0a94cbf2fa,Form,42,0,ESI,36,blank1,70
1655224198,80ae0546b8604ef8b997ad0a94cbf2fa,Form,42,0,ESI,36,blank2,100
1655224198,80ae0546b8604ef8b997ad0a94cbf2fa,Form,42,0,ESI,36,_REACTION_TIME_,12142
1655224198,80ae0546b8604ef8b997ad0a94cbf2fa,Form,27,0,ESI,21,blank1,100
1655224198,80ae0546b8604ef8b997ad0a94cbf2fa,Form,27,0,ESI,21,blank2,120
1655224198,80ae0546b8604ef8b997ad0a94cbf2fa,Form,27,0,ESI,21,_REACTION_TIME_,7614
1655224198,80ae0546b8604ef8b997ad0a94cbf2fa,Form,26,0,ESI,20,blank1,690
1655224198,80ae0546b8604ef8b997ad0a94cbf2fa,Form,26,0,ESI,20,blank2,750
1655224198,80ae0546b8604ef8b997ad0a94cbf2fa,Form,26,0,ESI,20,_REACTION_TIME_,8766
1655224198,80ae0546b8604ef8b997ad0a94cbf2fa,Form,24,0,ESI,18,blank1,70
1655224198,80ae0546b8604ef8b997ad0a94cbf2fa,Form,24,0,ESI,18,blank2,90
1655224198,80ae0546b8604ef8b997ad0a94cbf2fa,Form,24,0,ESI,18,_REACTION_TIME_,7686
1655224198,80ae0546b8604ef8b997ad0a94cbf2fa,Form,32,0,ESI,26,blank1,170
1655224198,80ae0546b8604ef8b997ad0a94cbf2fa,Form,32,0,ESI,26,blank2,185
1655224198,80ae0546b8604ef8b997ad0a94cbf2fa,Form,32,0,ESI,26,_REACTION_TIME_,7446
1655224198,80ae0546b8604ef8b997ad0a94cbf2fa,Form,56,0,ESI,50,blank1,200
1655224198,80ae0546b8604ef8b997ad0a94cbf2fa,Form,56,0,ESI,50,blank2,300
1655224198,80ae0546b8604ef8b997ad0a94cbf2fa,Form,56,0,ESI,50,_REACTION_TIME_,10293
1655224198,80ae0546b8604ef8b997ad0a94cbf2fa,Form,57,0,ESI,51,blank1,14000
1655224198,80ae0546b8604ef8b997ad0a94cbf2fa,Form,57,0,ESI,51,blank2,15000
1655224198,80ae0546b8604ef8b997ad0a94cbf2fa,Form,57,0,ESI,51,_REACTION_TIME_,12341
1655224198,80ae0546b8604ef8b997ad0a94cbf2fa,Form,69,0,filler3,NULL,blank1,4000
1655224198,80ae0546b8604ef8b997ad0a94cbf2fa,Form,69,0,filler3,NULL,blank2,8000
1655224198,80ae0546b8604ef8b997ad0a94cbf2fa,Form,69,0,filler3,NULL,_REACTION_TIME_,9766
1655224198,80ae0546b8604ef8b997ad0a94cbf2fa,Form,66,0,ESI,60,blank1,110
1655224198,80ae0546b8604ef8b997ad0a94cbf2fa,Form,66,0,ESI,60,blank2,120
1655224198,80ae0546b8604ef8b997ad0a94cbf2fa,Form,66,0,ESI,60,_REACTION_TIME_,12862
1655224198,80ae0546b8604ef8b997ad0a94cbf2fa,Form,65,0,ESI,59,blank1,70
1655224198,80ae0546b8604ef8b997ad0a94cbf2fa,Form,65,0,ESI,59,blank2,80
1655224198,80ae0546b8604ef8b997ad0a94cbf2fa,Form,65,0,ESI,59,_REACTION_TIME_,9318
1655224198,80ae0546b8604ef8b997ad0a94cbf2fa,Form,52,0,ESI,46,blank1,56
1655224198,80ae0546b8604ef8b997ad0a94cbf2fa,Form,52,0,ESI,46,blank2,70
1655224198,80ae0546b8604ef8b997ad0a94cbf2fa,Form,52,0,ESI,46,_REACTION_TIME_,7998
1655224198,80ae0546b8604ef8b997ad0a94cbf2fa,Form,33,0,ESI,27,blank1,30
1655224198,80ae0546b8604ef8b997ad0a94cbf2fa,Form,33,0,ESI,27,blank2,50
1655224198,80ae0546b8604ef8b997ad0a94cbf2fa,Form,33,0,ESI,27,_REACTION_TIME_,12782
1655224198,80ae0546b8604ef8b997ad0a94cbf2fa,Form,44,0,ESI,38,blank1,80
1655224198,80ae0546b8604ef8b997ad0a94cbf2fa,Form,44,0,ESI,38,blank2,100
1655224198,80ae0546b8604ef8b997ad0a94cbf2fa,Form,44,0,ESI,38,_REACTION_TIME_,10014
1655224198,80ae0546b8604ef8b997ad0a94cbf2fa,Form,21,0,ESI,15,blank1,110
1655224198,80ae0546b8604ef8b997ad0a94cbf2fa,Form,21,0,ESI,15,blank2,120
1655224198,80ae0546b8604ef8b997ad0a94cbf2fa,Form,21,0,ESI,15,_REACTION_TIME_,8390
1655224198,80ae0546b8604ef8b997ad0a94cbf2fa,Form,53,0,ESI,47,blank1,60
1655224198,80ae0546b8604ef8b997ad0a94cbf2fa,Form,53,0,ESI,47,blank2,80
1655224198,80ae0546b8604ef8b997ad0a94cbf2fa,Form,53,0,ESI,47,_REACTION_TIME_,12508
1655224198,80ae0546b8604ef8b997ad0a94cbf2fa,Form,28,0,ESI,22,blank1,90
1655224198,80ae0546b8604ef8b997ad0a94cbf2fa,Form,28,0,ESI,22,blank2,100
1655224198,80ae0546b8604ef8b997ad0a94cbf2fa,Form,28,0,ESI,22,_REACTION_TIME_,7349
1655224198,80ae0546b8604ef8b997ad0a94cbf2fa,Form,51,0,ESI,45,blank1,110
1655224198,80ae0546b8604ef8b997ad0a94cbf2fa,Form,51,0,ESI,45,blank2,122
1655224198,80ae0546b8604ef8b997ad0a94cbf2fa,Form,51,0,ESI,45,_REACTION_TIME_,19510
1655224198,80ae0546b8604ef8b997ad0a94cbf2fa,Form,60,0,ESI,54,blank1,70
1655224198,80ae0546b8604ef8b997ad0a94cbf2fa,Form,60,0,ESI,54,blank2,80
1655224198,80ae0546b8604ef8b997ad0a94cbf2fa,Form,60,0,ESI,54,_REACTION_TIME_,7902
1655224198,80ae0546b8604ef8b997ad0a94cbf2fa,Form,43,0,ESI,37,blank1,6000
1655224198,80ae0546b8604ef8b997ad0a94cbf2fa,Form,43,0,ESI,37,blank2,8000
1655224198,80ae0546b8604ef8b997ad0a94cbf2fa,Form,43,0,ESI,37,_REACTION_TIME_,13765
1655224198,80ae0546b8604ef8b997ad0a94cbf2fa,Form,14,0,ESI,8,blank1,350
1655224198,80ae0546b8604ef8b997ad0a94cbf2fa,Form,14,0,ESI,8,blank2,370
1655224198,80ae0546b8604ef8b997ad0a94cbf2fa,Form,14,0,ESI,8,_REACTION_TIME_,11758
1655224198,80ae0546b8604ef8b997ad0a94cbf2fa,Form,19,0,ESI,13,blank1,15
1655224198,80ae0546b8604ef8b997ad0a94cbf2fa,Form,19,0,ESI,13,blank2,30
1655224198,80ae0546b8604ef8b997ad0a94cbf2fa,Form,19,0,ESI,13,_REACTION_TIME_,8350
1655224198,80ae0546b8604ef8b997ad0a94cbf2fa,Form,41,0,ESI,35,blank1,450
1655224198,80ae0546b8604ef8b997ad0a94cbf2fa,Form,41,0,ESI,35,blank2,550
1655224198,80ae0546b8604ef8b997ad0a94cbf2fa,Form,41,0,ESI,35,_REACTION_TIME_,12790
1655224198,80ae0546b8604ef8b997ad0a94cbf2fa,Form,46,0,ESI,40,blank1,170
1655224198,80ae0546b8604ef8b997ad0a94cbf2fa,Form,46,0,ESI,40,blank2,190
1655224198,80ae0546b8604ef8b997ad0a94cbf2fa,Form,46,0,ESI,40,_REACTION_TIME_,13478
1655224198,80ae0546b8604ef8b997ad0a94cbf2fa,Form,11,0,ESI,5,blank1,2200
1655224198,80ae0546b8604ef8b997ad0a94cbf2fa,Form,11,0,ESI,5,blank2,2400
1655224198,80ae0546b8604ef8b997ad0a94cbf2fa,Form,11,0,ESI,5,_REACTION_TIME_,14958
1655224198,80ae0546b8604ef8b997ad0a94cbf2fa,Form,23,0,ESI,17,blank1,570
1655224198,80ae0546b8604ef8b997ad0a94cbf2fa,Form,23,0,ESI,17,blank2,600
1655224198,80ae0546b8604ef8b997ad0a94cbf2fa,Form,23,0,ESI,17,_REACTION_TIME_,11021
1655224198,80ae0546b8604ef8b997ad0a94cbf2fa,Form,48,0,ESI,42,blank1,79
1655224198,80ae0546b8604ef8b997ad0a94cbf2fa,Form,48,0,ESI,42,blank2,100
1655224198,80ae0546b8604ef8b997ad0a94cbf2fa,Form,48,0,ESI,42,_REACTION_TIME_,13078
1655224198,80ae0546b8604ef8b997ad0a94cbf2fa,Form,34,0,ESI,28,blank1,220
1655224198,80ae0546b8604ef8b997ad0a94cbf2fa,Form,34,0,ESI,28,blank2,250
1655224198,80ae0546b8604ef8b997ad0a94cbf2fa,Form,34,0,ESI,28,_REACTION_TIME_,10814
1655224198,80ae0546b8604ef8b997ad0a94cbf2fa,Form,17,0,ESI,11,blank1,60
1655224198,80ae0546b8604ef8b997ad0a94cbf2fa,Form,17,0,ESI,11,blank2,70
1655224198,80ae0546b8604ef8b997ad0a94cbf2fa,Form,17,0,ESI,11,_REACTION_TIME_,15933
1655224198,80ae0546b8604ef8b997ad0a94cbf2fa,Form,9,0,ESI,3,blank1,420
1655224198,80ae0546b8604ef8b997ad0a94cbf2fa,Form,9,0,ESI,3,blank2,450
1655224198,80ae0546b8604ef8b997ad0a94cbf2fa,Form,9,0,ESI,3,_REACTION_TIME_,16814
1655224198,80ae0546b8604ef8b997ad0a94cbf2fa,Form,67,0,filler1,NULL,blank1,65
1655224198,80ae0546b8604ef8b997ad0a94cbf2fa,Form,67,0,filler1,NULL,blank2,70
1655224198,80ae0546b8604ef8b997ad0a94cbf2fa,Form,67,0,filler1,NULL,_REACTION_TIME_,15637
1655224198,80ae0546b8604ef8b997ad0a94cbf2fa,Form,2,0,brexit,NULL,prolific_id,59c9c8da5535800001a8e434
1655224198,80ae0546b8604ef8b997ad0a94cbf2fa,Form,2,0,brexit,NULL,completion_code,634BCF6E
1655224198,80ae0546b8604ef8b997ad0a94cbf2fa,Form,2,0,brexit,NULL,_REACTION_TIME_,28366
#
# Results on Tue, 14 Jun 2022 16:44:35 GMT
# USER AGENT: Mozilla/5.0 (Windows NT 10.0; Win64; x64) AppleWebKit/537.36 (KHTML, like Gecko) Chrome/102.0.0.0 Safari/537.36
# Design number was non-random = 2
#
# Columns below this comment are as follows:
# 1. Results reception time.
# 2. MD5 hash of participant's IP address.
# 3. Controller name.
# 4. Order number of item.
# 5. Inner element number.
# 6. Label.
# 7. Latin Square Group.
# 8. Field name.
# 9. Field value.
1655225075,fcb5d78a0f3e1170ab42e328fe09c62f,Form,1,0,consent,NULL,consent,yes
1655225075,fcb5d78a0f3e1170ab42e328fe09c62f,Form,1,0,consent,NULL,_REACTION_TIME_,12947
1655225075,fcb5d78a0f3e1170ab42e328fe09c62f,Form,4,0,introfirst,NULL,ID,5a708ef2f1530b000103bfab
1655225075,fcb5d78a0f3e1170ab42e328fe09c62f,Form,4,0,introfirst,NULL,age,40
1655225075,fcb5d78a0f3e1170ab42e328fe09c62f,Form,4,0,introfirst,NULL,natlang,English
1655225075,fcb5d78a0f3e1170ab42e328fe09c62f,Form,4,0,introfirst,NULL,state,KS
1655225075,fcb5d78a0f3e1170ab42e328fe09c62f,Form,4,0,introfirst,NULL,parentlang,English%2C Hindi
1655225075,fcb5d78a0f3e1170ab42e328fe09c62f,Form,4,0,introfirst,NULL,domlang,English
1655225075,fcb5d78a0f3e1170ab42e328fe09c62f,Form,4,0,introfirst,NULL,otherlang,Spanish
1655225075,fcb5d78a0f3e1170ab42e328fe09c62f,Form,4,0,introfirst,NULL,gender,female
1655225075,fcb5d78a0f3e1170ab42e328fe09c62f,Form,4,0,introfirst,NULL,_REACTION_TIME_,30198
1655225075,fcb5d78a0f3e1170ab42e328fe09c62f,Form,5,0,intro,NULL,question1,one
1655225075,fcb5d78a0f3e1170ab42e328fe09c62f,Form,5,0,intro,NULL,_REACTION_TIME_,20363
1655225075,fcb5d78a0f3e1170ab42e328fe09c62f,Form,21,0,ESI,15,blank1,100
1655225075,fcb5d78a0f3e1170ab42e328fe09c62f,Form,21,0,ESI,15,blank2,120
1655225075,fcb5d78a0f3e1170ab42e328fe09c62f,Form,21,0,ESI,15,_REACTION_TIME_,11531
1655225075,fcb5d78a0f3e1170ab42e328fe09c62f,Form,10,0,ESI,4,blank1,275
1655225075,fcb5d78a0f3e1170ab42e328fe09c62f,Form,10,0,ESI,4,blank2,300
1655225075,fcb5d78a0f3e1170ab42e328fe09c62f,Form,10,0,ESI,4,_REACTION_TIME_,12454
1655225075,fcb5d78a0f3e1170ab42e328fe09c62f,Form,28,0,ESI,22,blank1,80
1655225075,fcb5d78a0f3e1170ab42e328fe09c62f,Form,28,0,ESI,22,blank2,120
1655225075,fcb5d78a0f3e1170ab42e328fe09c62f,Form,28,0,ESI,22,_REACTION_TIME_,12580
1655225075,fcb5d78a0f3e1170ab42e328fe09c62f,Form,47,0,ESI,41,blank1,60
1655225075,fcb5d78a0f3e1170ab42e328fe09c62f,Form,47,0,ESI,41,blank2,100
1655225075,fcb5d78a0f3e1170ab42e328fe09c62f,Form,47,0,ESI,41,_REACTION_TIME_,8654
1655225075,fcb5d78a0f3e1170ab42e328fe09c62f,Form,7,0,ESI,1,blank1,36
1655225075,fcb5d78a0f3e1170ab42e328fe09c62f,Form,7,0,ESI,1,blank2,40
1655225075,fcb5d78a0f3e1170ab42e328fe09c62f,Form,7,0,ESI,1,_REACTION_TIME_,11436
1655225075,fcb5d78a0f3e1170ab42e328fe09c62f,Form,11,0,ESI,5,blank1,2700
1655225075,fcb5d78a0f3e1170ab42e328fe09c62f,Form,11,0,ESI,5,blank2,3200
1655225075,fcb5d78a0f3e1170ab42e328fe09c62f,Form,11,0,ESI,5,_REACTION_TIME_,18551
1655225075,fcb5d78a0f3e1170ab42e328fe09c62f,Form,64,0,ESI,58,blank1,10
1655225075,fcb5d78a0f3e1170ab42e328fe09c62f,Form,64,0,ESI,58,blank2,30
1655225075,fcb5d78a0f3e1170ab42e328fe09c62f,Form,64,0,ESI,58,_REACTION_TIME_,18091
1655225075,fcb5d78a0f3e1170ab42e328fe09c62f,Form,52,0,ESI,46,blank1,57
1655225075,fcb5d78a0f3e1170ab42e328fe09c62f,Form,52,0,ESI,46,blank2,72
1655225075,fcb5d78a0f3e1170ab42e328fe09c62f,Form,52,0,ESI,46,_REACTION_TIME_,15277
1655225075,fcb5d78a0f3e1170ab42e328fe09c62f,Form,19,0,ESI,13,blank1,15
1655225075,fcb5d78a0f3e1170ab42e328fe09c62f,Form,19,0,ESI,13,blank2,20
1655225075,fcb5d78a0f3e1170ab42e328fe09c62f,Form,19,0,ESI,13,_REACTION_TIME_,7962
1655225075,fcb5d78a0f3e1170ab42e328fe09c62f,Form,56,0,ESI,50,blank1,201
1655225075,fcb5d78a0f3e1170ab42e328fe09c62f,Form,56,0,ESI,50,blank2,400
1655225075,fcb5d78a0f3e1170ab42e328fe09c62f,Form,56,0,ESI,50,_REACTION_TIME_,16864
1655225075,fcb5d78a0f3e1170ab42e328fe09c62f,Form,29,0,ESI,23,blank1,120
1655225075,fcb5d78a0f3e1170ab42e328fe09c62f,Form,29,0,ESI,23,blank2,150
1655225075,fcb5d78a0f3e1170ab42e328fe09c62f,Form,29,0,ESI,23,_REACTION_TIME_,13133
1655225075,fcb5d78a0f3e1170ab42e328fe09c62f,Form,66,0,ESI,60,blank1,1
1655225075,fcb5d78a0f3e1170ab42e328fe09c62f,Form,66,0,ESI,60,blank2,150
1655225075,fcb5d78a0f3e1170ab42e328fe09c62f,Form,66,0,ESI,60,_REACTION_TIME_,20513
1655225075,fcb5d78a0f3e1170ab42e328fe09c62f,Form,18,0,ESI,12,blank1,235
1655225075,fcb5d78a0f3e1170ab42e328fe09c62f,Form,18,0,ESI,12,blank2,260
1655225075,fcb5d78a0f3e1170ab42e328fe09c62f,Form,18,0,ESI,12,_REACTION_TIME_,11888
1655225075,fcb5d78a0f3e1170ab42e328fe09c62f,Form,25,0,ESI,19,blank1,120
1655225075,fcb5d78a0f3e1170ab42e328fe09c62f,Form,25,0,ESI,19,blank2,140
1655225075,fcb5d78a0f3e1170ab42e328fe09c62f,Form,25,0,ESI,19,_REACTION_TIME_,16077
1655225075,fcb5d78a0f3e1170ab42e328fe09c62f,Form,17,0,ESI,11,blank1,40
1655225075,fcb5d78a0f3e1170ab42e328fe09c62f,Form,17,0,ESI,11,blank2,60
1655225075,fcb5d78a0f3e1170ab42e328fe09c62f,Form,17,0,ESI,11,_REACTION_TIME_,14258
1655225075,fcb5d78a0f3e1170ab42e328fe09c62f,Form,37,0,ESI,31,blank1,50
1655225075,fcb5d78a0f3e1170ab42e328fe09c62f,Form,37,0,ESI,31,blank2,60
1655225075,fcb5d78a0f3e1170ab42e328fe09c62f,Form,37,0,ESI,31,_REACTION_TIME_,10741
1655225075,fcb5d78a0f3e1170ab42e328fe09c62f,Form,24,0,ESI,18,blank1,100
1655225075,fcb5d78a0f3e1170ab42e328fe09c62f,Form,24,0,ESI,18,blank2,150
1655225075,fcb5d78a0f3e1170ab42e328fe09c62f,Form,24,0,ESI,18,_REACTION_TIME_,6350
1655225075,fcb5d78a0f3e1170ab42e328fe09c62f,Form,60,0,ESI,54,blank1,1
1655225075,fcb5d78a0f3e1170ab42e328fe09c62f,Form,60,0,ESI,54,blank2,90
1655225075,fcb5d78a0f3e1170ab42e328fe09c62f,Form,60,0,ESI,54,_REACTION_TIME_,17543
1655225075,fcb5d78a0f3e1170ab42e328fe09c62f,Form,50,0,ESI,44,blank1,16
1655225075,fcb5d78a0f3e1170ab42e328fe09c62f,Form,50,0,ESI,44,blank2,20
1655225075,fcb5d78a0f3e1170ab42e328fe09c62f,Form,50,0,ESI,44,_REACTION_TIME_,9826
1655225075,fcb5d78a0f3e1170ab42e328fe09c62f,Form,68,0,filler2,NULL,blank1,51
1655225075,fcb5d78a0f3e1170ab42e328fe09c62f,Form,68,0,filler2,NULL,blank2,80
1655225075,fcb5d78a0f3e1170ab42e328fe09c62f,Form,68,0,filler2,NULL,_REACTION_TIME_,7930
1655225075,fcb5d78a0f3e1170ab42e328fe09c62f,Form,45,0,ESI,39,blank1,120
1655225075,fcb5d78a0f3e1170ab42e328fe09c62f,Form,45,0,ESI,39,blank2,150
1655225075,fcb5d78a0f3e1170ab42e328fe09c62f,Form,45,0,ESI,39,_REACTION_TIME_,12458
1655225075,fcb5d78a0f3e1170ab42e328fe09c62f,Form,63,0,ESI,57,blank1,150
1655225075,fcb5d78a0f3e1170ab42e328fe09c62f,Form,63,0,ESI,57,blank2,200
1655225075,fcb5d78a0f3e1170ab42e328fe09c62f,Form,63,0,ESI,57,_REACTION_TIME_,12564
1655225075,fcb5d78a0f3e1170ab42e328fe09c62f,Form,49,0,ESI,43,blank1,60
1655225075,fcb5d78a0f3e1170ab42e328fe09c62f,Form,49,0,ESI,43,blank2,95
1655225075,fcb5d78a0f3e1170ab42e328fe09c62f,Form,49,0,ESI,43,_REACTION_TIME_,15394
1655225075,fcb5d78a0f3e1170ab42e328fe09c62f,Form,40,0,ESI,34,blank1,13
1655225075,fcb5d78a0f3e1170ab42e328fe09c62f,Form,40,0,ESI,34,blank2,16
1655225075,fcb5d78a0f3e1170ab42e328fe09c62f,Form,40,0,ESI,34,_REACTION_TIME_,14896
1655225075,fcb5d78a0f3e1170ab42e328fe09c62f,Form,12,0,ESI,6,blank1,9000
1655225075,fcb5d78a0f3e1170ab42e328fe09c62f,Form,12,0,ESI,6,blank2,11000
1655225075,fcb5d78a0f3e1170ab42e328fe09c62f,Form,12,0,ESI,6,_REACTION_TIME_,14020
1655225075,fcb5d78a0f3e1170ab42e328fe09c62f,Form,30,0,ESI,24,blank1,66
1655225075,fcb5d78a0f3e1170ab42e328fe09c62f,Form,30,0,ESI,24,blank2,70
1655225075,fcb5d78a0f3e1170ab42e328fe09c62f,Form,30,0,ESI,24,_REACTION_TIME_,10286
1655225075,fcb5d78a0f3e1170ab42e328fe09c62f,Form,44,0,ESI,38,blank1,75
1655225075,fcb5d78a0f3e1170ab42e328fe09c62f,Form,44,0,ESI,38,blank2,90
1655225075,fcb5d78a0f3e1170ab42e328fe09c62f,Form,44,0,ESI,38,_REACTION_TIME_,10294
1655225075,fcb5d78a0f3e1170ab42e328fe09c62f,Form,22,0,ESI,16,blank1,150
1655225075,fcb5d78a0f3e1170ab42e328fe09c62f,Form,22,0,ESI,16,blank2,200
1655225075,fcb5d78a0f3e1170ab42e328fe09c62f,Form,22,0,ESI,16,_REACTION_TIME_,7010
1655225075,fcb5d78a0f3e1170ab42e328fe09c62f,Form,20,0,ESI,14,blank1,250
1655225075,fcb5d78a0f3e1170ab42e328fe09c62f,Form,20,0,ESI,14,blank2,300
1655225075,fcb5d78a0f3e1170ab42e328fe09c62f,Form,20,0,ESI,14,_REACTION_TIME_,8810
1655225075,fcb5d78a0f3e1170ab42e328fe09c62f,Form,41,0,ESI,35,blank1,500
1655225075,fcb5d78a0f3e1170ab42e328fe09c62f,Form,41,0,ESI,35,blank2,600
1655225075,fcb5d78a0f3e1170ab42e328fe09c62f,Form,41,0,ESI,35,_REACTION_TIME_,8741
1655225075,fcb5d78a0f3e1170ab42e328fe09c62f,Form,35,0,ESI,29,blank1,120
1655225075,fcb5d78a0f3e1170ab42e328fe09c62f,Form,35,0,ESI,29,blank2,140
1655225075,fcb5d78a0f3e1170ab42e328fe09c62f,Form,35,0,ESI,29,_REACTION_TIME_,9099
1655225075,fcb5d78a0f3e1170ab42e328fe09c62f,Form,65,0,ESI,59,blank1,1
1655225075,fcb5d78a0f3e1170ab42e328fe09c62f,Form,65,0,ESI,59,blank2,60
1655225075,fcb5d78a0f3e1170ab42e328fe09c62f,Form,65,0,ESI,59,_REACTION_TIME_,10280
1655225075,fcb5d78a0f3e1170ab42e328fe09c62f,Form,38,0,ESI,32,blank1,25
1655225075,fcb5d78a0f3e1170ab42e328fe09c62f,Form,38,0,ESI,32,blank2,30
1655225075,fcb5d78a0f3e1170ab42e328fe09c62f,Form,38,0,ESI,32,_REACTION_TIME_,11795
1655225075,fcb5d78a0f3e1170ab42e328fe09c62f,Form,54,0,ESI,48,blank1,186
1655225075,fcb5d78a0f3e1170ab42e328fe09c62f,Form,54,0,ESI,48,blank2,200
1655225075,fcb5d78a0f3e1170ab42e328fe09c62f,Form,54,0,ESI,48,_REACTION_TIME_,8721
1655225075,fcb5d78a0f3e1170ab42e328fe09c62f,Form,16,0,ESI,10,blank1,120
1655225075,fcb5d78a0f3e1170ab42e328fe09c62f,Form,16,0,ESI,10,blank2,130
1655225075,fcb5d78a0f3e1170ab42e328fe09c62f,Form,16,0,ESI,10,_REACTION_TIME_,11125
1655225075,fcb5d78a0f3e1170ab42e328fe09c62f,Form,53,0,ESI,47,blank1,50
1655225075,fcb5d78a0f3e1170ab42e328fe09c62f,Form,53,0,ESI,47,blank2,79
1655225075,fcb5d78a0f3e1170ab42e328fe09c62f,Form,53,0,ESI,47,_REACTION_TIME_,16352
1655225075,fcb5d78a0f3e1170ab42e328fe09c62f,Form,27,0,ESI,21,blank1,100
1655225075,fcb5d78a0f3e1170ab42e328fe09c62f,Form,27,0,ESI,21,blank2,130
1655225075,fcb5d78a0f3e1170ab42e328fe09c62f,Form,27,0,ESI,21,_REACTION_TIME_,11310
1655225075,fcb5d78a0f3e1170ab42e328fe09c62f,Form,26,0,ESI,20,blank1,800
1655225075,fcb5d78a0f3e1170ab42e328fe09c62f,Form,26,0,ESI,20,blank2,1000
1655225075,fcb5d78a0f3e1170ab42e328fe09c62f,Form,26,0,ESI,20,_REACTION_TIME_,7179
1655225075,fcb5d78a0f3e1170ab42e328fe09c62f,Form,48,0,ESI,42,blank1,80
1655225075,fcb5d78a0f3e1170ab42e328fe09c62f,Form,48,0,ESI,42,blank2,120
1655225075,fcb5d78a0f3e1170ab42e328fe09c62f,Form,48,0,ESI,42,_REACTION_TIME_,15311
1655225075,fcb5d78a0f3e1170ab42e328fe09c62f,Form,62,0,ESI,56,blank1,1
1655225075,fcb5d78a0f3e1170ab42e328fe09c62f,Form,62,0,ESI,56,blank2,13500
1655225075,fcb5d78a0f3e1170ab42e328fe09c62f,Form,62,0,ESI,56,_REACTION_TIME_,15544
1655225075,fcb5d78a0f3e1170ab42e328fe09c62f,Form,69,0,filler3,NULL,blank1,4001
1655225075,fcb5d78a0f3e1170ab42e328fe09c62f,Form,69,0,filler3,NULL,blank2,8000
1655225075,fcb5d78a0f3e1170ab42e328fe09c62f,Form,69,0,filler3,NULL,_REACTION_TIME_,11443
1655225075,fcb5d78a0f3e1170ab42e328fe09c62f,Form,57,0,ESI,51,blank1,13000
1655225075,fcb5d78a0f3e1170ab42e328fe09c62f,Form,57,0,ESI,51,blank2,15000
1655225075,fcb5d78a0f3e1170ab42e328fe09c62f,Form,57,0,ESI,51,_REACTION_TIME_,34563
1655225075,fcb5d78a0f3e1170ab42e328fe09c62f,Form,32,0,ESI,26,blank1,160
1655225075,fcb5d78a0f3e1170ab42e328fe09c62f,Form,32,0,ESI,26,blank2,190
1655225075,fcb5d78a0f3e1170ab42e328fe09c62f,Form,32,0,ESI,26,_REACTION_TIME_,9450
1655225075,fcb5d78a0f3e1170ab42e328fe09c62f,Form,59,0,ESI,53,blank1,1000
1655225075,fcb5d78a0f3e1170ab42e328fe09c62f,Form,59,0,ESI,53,blank2,2000
1655225075,fcb5d78a0f3e1170ab42e328fe09c62f,Form,59,0,ESI,53,_REACTION_TIME_,9913
1655225075,fcb5d78a0f3e1170ab42e328fe09c62f,Form,8,0,ESI,2,blank1,325
1655225075,fcb5d78a0f3e1170ab42e328fe09c62f,Form,8,0,ESI,2,blank2,350
1655225075,fcb5d78a0f3e1170ab42e328fe09c62f,Form,8,0,ESI,2,_REACTION_TIME_,12209
1655225075,fcb5d78a0f3e1170ab42e328fe09c62f,Form,46,0,ESI,40,blank1,100
1655225075,fcb5d78a0f3e1170ab42e328fe09c62f,Form,46,0,ESI,40,blank2,150
1655225075,fcb5d78a0f3e1170ab42e328fe09c62f,Form,46,0,ESI,40,_REACTION_TIME_,10740
1655225075,fcb5d78a0f3e1170ab42e328fe09c62f,Form,36,0,ESI,30,blank1,325
1655225075,fcb5d78a0f3e1170ab42e328fe09c62f,Form,36,0,ESI,30,blank2,375
1655225075,fcb5d78a0f3e1170ab42e328fe09c62f,Form,36,0,ESI,30,_REACTION_TIME_,9053
1655225075,fcb5d78a0f3e1170ab42e328fe09c62f,Form,34,0,ESI,28,blank1,225
1655225075,fcb5d78a0f3e1170ab42e328fe09c62f,Form,34,0,ESI,28,blank2,275
1655225075,fcb5d78a0f3e1170ab42e328fe09c62f,Form,34,0,ESI,28,_REACTION_TIME_,8303
1655225075,fcb5d78a0f3e1170ab42e328fe09c62f,Form,58,0,ESI,52,blank1,1
1655225075,fcb5d78a0f3e1170ab42e328fe09c62f,Form,58,0,ESI,52,blank2,100
1655225075,fcb5d78a0f3e1170ab42e328fe09c62f,Form,58,0,ESI,52,_REACTION_TIME_,14990
1655225075,fcb5d78a0f3e1170ab42e328fe09c62f,Form,39,0,ESI,33,blank1,25
1655225075,fcb5d78a0f3e1170ab42e328fe09c62f,Form,39,0,ESI,33,blank2,30
1655225075,fcb5d78a0f3e1170ab42e328fe09c62f,Form,39,0,ESI,33,_REACTION_TIME_,10732
1655225075,fcb5d78a0f3e1170ab42e328fe09c62f,Form,15,0,ESI,9,blank1,130
1655225075,fcb5d78a0f3e1170ab42e328fe09c62f,Form,15,0,ESI,9,blank2,150
1655225075,fcb5d78a0f3e1170ab42e328fe09c62f,Form,15,0,ESI,9,_REACTION_TIME_,10451
1655225075,fcb5d78a0f3e1170ab42e328fe09c62f,Form,43,0,ESI,37,blank1,7000
1655225075,fcb5d78a0f3e1170ab42e328fe09c62f,Form,43,0,ESI,37,blank2,9000
1655225075,fcb5d78a0f3e1170ab42e328fe09c62f,Form,43,0,ESI,37,_REACTION_TIME_,11068
1655225075,fcb5d78a0f3e1170ab42e328fe09c62f,Form,55,0,ESI,49,blank1,50
1655225075,fcb5d78a0f3e1170ab42e328fe09c62f,Form,55,0,ESI,49,blank2,115
1655225075,fcb5d78a0f3e1170ab42e328fe09c62f,Form,55,0,ESI,49,_REACTION_TIME_,11584
1655225075,fcb5d78a0f3e1170ab42e328fe09c62f,Form,33,0,ESI,27,blank1,30
1655225075,fcb5d78a0f3e1170ab42e328fe09c62f,Form,33,0,ESI,27,blank2,60
1655225075,fcb5d78a0f3e1170ab42e328fe09c62f,Form,33,0,ESI,27,_REACTION_TIME_,11146
1655225075,fcb5d78a0f3e1170ab42e328fe09c62f,Form,31,0,ESI,25,blank1,105
1655225075,fcb5d78a0f3e1170ab42e328fe09c62f,Form,31,0,ESI,25,blank2,135
1655225075,fcb5d78a0f3e1170ab42e328fe09c62f,Form,31,0,ESI,25,_REACTION_TIME_,10905
1655225075,fcb5d78a0f3e1170ab42e328fe09c62f,Form,9,0,ESI,3,blank1,450
1655225075,fcb5d78a0f3e1170ab42e328fe09c62f,Form,9,0,ESI,3,blank2,500
1655225075,fcb5d78a0f3e1170ab42e328fe09c62f,Form,9,0,ESI,3,_REACTION_TIME_,10958
1655225075,fcb5d78a0f3e1170ab42e328fe09c62f,Form,51,0,ESI,45,blank1,100
1655225075,fcb5d78a0f3e1170ab42e328fe09c62f,Form,51,0,ESI,45,blank2,130
1655225075,fcb5d78a0f3e1170ab42e328fe09c62f,Form,51,0,ESI,45,_REACTION_TIME_,8638
1655225075,fcb5d78a0f3e1170ab42e328fe09c62f,Form,23,0,ESI,17,blank1,450
1655225075,fcb5d78a0f3e1170ab42e328fe09c62f,Form,23,0,ESI,17,blank2,550
1655225075,fcb5d78a0f3e1170ab42e328fe09c62f,Form,23,0,ESI,17,_REACTION_TIME_,14905
1655225075,fcb5d78a0f3e1170ab42e328fe09c62f,Form,13,0,ESI,7,blank1,150
1655225075,fcb5d78a0f3e1170ab42e328fe09c62f,Form,13,0,ESI,7,blank2,165
1655225075,fcb5d78a0f3e1170ab42e328fe09c62f,Form,13,0,ESI,7,_REACTION_TIME_,9334
1655225075,fcb5d78a0f3e1170ab42e328fe09c62f,Form,42,0,ESI,36,blank1,75
1655225075,fcb5d78a0f3e1170ab42e328fe09c62f,Form,42,0,ESI,36,blank2,95
1655225075,fcb5d78a0f3e1170ab42e328fe09c62f,Form,42,0,ESI,36,_REACTION_TIME_,12335
1655225075,fcb5d78a0f3e1170ab42e328fe09c62f,Form,61,0,ESI,55,blank1,1200
1655225075,fcb5d78a0f3e1170ab42e328fe09c62f,Form,61,0,ESI,55,blank2,1600
1655225075,fcb5d78a0f3e1170ab42e328fe09c62f,Form,61,0,ESI,55,_REACTION_TIME_,15706
1655225075,fcb5d78a0f3e1170ab42e328fe09c62f,Form,14,0,ESI,8,blank1,300
1655225075,fcb5d78a0f3e1170ab42e328fe09c62f,Form,14,0,ESI,8,blank2,350
1655225075,fcb5d78a0f3e1170ab42e328fe09c62f,Form,14,0,ESI,8,_REACTION_TIME_,10000
1655225075,fcb5d78a0f3e1170ab42e328fe09c62f,Form,67,0,filler1,NULL,blank1,66
1655225075,fcb5d78a0f3e1170ab42e328fe09c62f,Form,67,0,filler1,NULL,blank2,74
1655225075,fcb5d78a0f3e1170ab42e328fe09c62f,Form,67,0,filler1,NULL,_REACTION_TIME_,14677
1655225075,fcb5d78a0f3e1170ab42e328fe09c62f,Form,2,0,brexit,NULL,prolific_id,5a708ef2f1530b000103bfab
1655225075,fcb5d78a0f3e1170ab42e328fe09c62f,Form,2,0,brexit,NULL,completion_code,634BCF6E
1655225075,fcb5d78a0f3e1170ab42e328fe09c62f,Form,2,0,brexit,NULL,_REACTION_TIME_,27491
#
# Results on Tue, 14 Jun 2022 16:45:42 GMT
# USER AGENT: Mozilla/5.0 (Macintosh; Intel Mac OS X 10_15_7) AppleWebKit/537.36 (KHTML, like Gecko) Chrome/101.0.4951.64 Safari/537.36
# Design number was non-random = 0
#
# Columns below this comment are as follows:
# 1. Results reception time.
# 2. MD5 hash of participant's IP address.
# 3. Controller name.
# 4. Order number of item.
# 5. Inner element number.
# 6. Label.
# 7. Latin Square Group.
# 8. Field name.
# 9. Field value.
1655225142,503d3648cdee2f66660977435b8e311e,Form,1,0,consent,NULL,consent,yes
1655225142,503d3648cdee2f66660977435b8e311e,Form,1,0,consent,NULL,_REACTION_TIME_,5644
1655225142,503d3648cdee2f66660977435b8e311e,Form,4,0,introfirst,NULL,ID,6102c62a058c1739c6a51443
1655225142,503d3648cdee2f66660977435b8e311e,Form,4,0,introfirst,NULL,age,24
1655225142,503d3648cdee2f66660977435b8e311e,Form,4,0,introfirst,NULL,natlang,english
1655225142,503d3648cdee2f66660977435b8e311e,Form,4,0,introfirst,NULL,state,NY
1655225142,503d3648cdee2f66660977435b8e311e,Form,4,0,introfirst,NULL,parentlang,English
1655225142,503d3648cdee2f66660977435b8e311e,Form,4,0,introfirst,NULL,domlang,English
1655225142,503d3648cdee2f66660977435b8e311e,Form,4,0,introfirst,NULL,otherlang,no
1655225142,503d3648cdee2f66660977435b8e311e,Form,4,0,introfirst,NULL,gender,female
1655225142,503d3648cdee2f66660977435b8e311e,Form,4,0,introfirst,NULL,_REACTION_TIME_,31179
1655225142,503d3648cdee2f66660977435b8e311e,Form,5,0,intro,NULL,question1,one
1655225142,503d3648cdee2f66660977435b8e311e,Form,5,0,intro,NULL,_REACTION_TIME_,15946
1655225142,503d3648cdee2f66660977435b8e311e,Form,54,0,ESI,48,blank1,185
1655225142,503d3648cdee2f66660977435b8e311e,Form,54,0,ESI,48,blank2,300
1655225142,503d3648cdee2f66660977435b8e311e,Form,54,0,ESI,48,_REACTION_TIME_,39232
1655225142,503d3648cdee2f66660977435b8e311e,Form,7,0,ESI,1,blank1,30
1655225142,503d3648cdee2f66660977435b8e311e,Form,7,0,ESI,1,blank2,40
1655225142,503d3648cdee2f66660977435b8e311e,Form,7,0,ESI,1,_REACTION_TIME_,18179
1655225142,503d3648cdee2f66660977435b8e311e,Form,45,0,ESI,39,blank1,113
1655225142,503d3648cdee2f66660977435b8e311e,Form,45,0,ESI,39,blank2,200
1655225142,503d3648cdee2f66660977435b8e311e,Form,45,0,ESI,39,_REACTION_TIME_,16865
1655225142,503d3648cdee2f66660977435b8e311e,Form,38,0,ESI,32,blank1,39
1655225142,503d3648cdee2f66660977435b8e311e,Form,38,0,ESI,32,blank2,30
1655225142,503d3648cdee2f66660977435b8e311e,Form,38,0,ESI,32,_REACTION_TIME_,13295
1655225142,503d3648cdee2f66660977435b8e311e,Form,46,0,ESI,40,blank1,199
1655225142,503d3648cdee2f66660977435b8e311e,Form,46,0,ESI,40,blank2,100
1655225142,503d3648cdee2f66660977435b8e311e,Form,46,0,ESI,40,_REACTION_TIME_,13219
1655225142,503d3648cdee2f66660977435b8e311e,Form,63,0,ESI,57,blank1,114
1655225142,503d3648cdee2f66660977435b8e311e,Form,63,0,ESI,57,blank2,185
1655225142,503d3648cdee2f66660977435b8e311e,Form,63,0,ESI,57,_REACTION_TIME_,19328
1655225142,503d3648cdee2f66660977435b8e311e,Form,36,0,ESI,30,blank1,300
1655225142,503d3648cdee2f66660977435b8e311e,Form,36,0,ESI,30,blank2,400
1655225142,503d3648cdee2f66660977435b8e311e,Form,36,0,ESI,30,_REACTION_TIME_,19303
1655225142,503d3648cdee2f66660977435b8e311e,Form,19,0,ESI,13,blank1,5
1655225142,503d3648cdee2f66660977435b8e311e,Form,19,0,ESI,13,blank2,30
1655225142,503d3648cdee2f66660977435b8e311e,Form,19,0,ESI,13,_REACTION_TIME_,14132
1655225142,503d3648cdee2f66660977435b8e311e,Form,26,0,ESI,20,blank1,700
1655225142,503d3648cdee2f66660977435b8e311e,Form,26,0,ESI,20,blank2,1000
1655225142,503d3648cdee2f66660977435b8e311e,Form,26,0,ESI,20,_REACTION_TIME_,15303
1655225142,503d3648cdee2f66660977435b8e311e,Form,15,0,ESI,9,blank1,100
1655225142,503d3648cdee2f66660977435b8e311e,Form,15,0,ESI,9,blank2,150
1655225142,503d3648cdee2f66660977435b8e311e,Form,15,0,ESI,9,_REACTION_TIME_,15574
1655225142,503d3648cdee2f66660977435b8e311e,Form,57,0,ESI,51,blank1,1300
1655225142,503d3648cdee2f66660977435b8e311e,Form,57,0,ESI,51,blank2,14533
1655225142,503d3648cdee2f66660977435b8e311e,Form,57,0,ESI,51,_REACTION_TIME_,17755
1655225142,503d3648cdee2f66660977435b8e311e,Form,32,0,ESI,26,blank1,181
1655225142,503d3648cdee2f66660977435b8e311e,Form,32,0,ESI,26,blank2,200
1655225142,503d3648cdee2f66660977435b8e311e,Form,32,0,ESI,26,_REACTION_TIME_,12203
1655225142,503d3648cdee2f66660977435b8e311e,Form,64,0,ESI,58,blank1,0
1655225142,503d3648cdee2f66660977435b8e311e,Form,64,0,ESI,58,blank2,20
1655225142,503d3648cdee2f66660977435b8e311e,Form,64,0,ESI,58,_REACTION_TIME_,23268
1655225142,503d3648cdee2f66660977435b8e311e,Form,28,0,ESI,22,blank1,100
1655225142,503d3648cdee2f66660977435b8e311e,Form,28,0,ESI,22,blank2,96
1655225142,503d3648cdee2f66660977435b8e311e,Form,28,0,ESI,22,_REACTION_TIME_,12091
1655225142,503d3648cdee2f66660977435b8e311e,Form,20,0,ESI,14,blank1,224
1655225142,503d3648cdee2f66660977435b8e311e,Form,20,0,ESI,14,blank2,300
1655225142,503d3648cdee2f66660977435b8e311e,Form,20,0,ESI,14,_REACTION_TIME_,9086
1655225142,503d3648cdee2f66660977435b8e311e,Form,25,0,ESI,19,blank1,150
1655225142,503d3648cdee2f66660977435b8e311e,Form,25,0,ESI,19,blank2,100
1655225142,503d3648cdee2f66660977435b8e311e,Form,25,0,ESI,19,_REACTION_TIME_,19260
1655225142,503d3648cdee2f66660977435b8e311e,Form,21,0,ESI,15,blank1,100
1655225142,503d3648cdee2f66660977435b8e311e,Form,21,0,ESI,15,blank2,140
1655225142,503d3648cdee2f66660977435b8e311e,Form,21,0,ESI,15,_REACTION_TIME_,11710
1655225142,503d3648cdee2f66660977435b8e311e,Form,42,0,ESI,36,blank1,50
1655225142,503d3648cdee2f66660977435b8e311e,Form,42,0,ESI,36,blank2,106
1655225142,503d3648cdee2f66660977435b8e311e,Form,42,0,ESI,36,_REACTION_TIME_,14743
1655225142,503d3648cdee2f66660977435b8e311e,Form,11,0,ESI,5,blank1,3000
1655225142,503d3648cdee2f66660977435b8e311e,Form,11,0,ESI,5,blank2,2000
1655225142,503d3648cdee2f66660977435b8e311e,Form,11,0,ESI,5,_REACTION_TIME_,10655
1655225142,503d3648cdee2f66660977435b8e311e,Form,67,0,filler1,NULL,blank1,60
1655225142,503d3648cdee2f66660977435b8e311e,Form,67,0,filler1,NULL,blank2,80
1655225142,503d3648cdee2f66660977435b8e311e,Form,67,0,filler1,NULL,_REACTION_TIME_,190819
1655225142,503d3648cdee2f66660977435b8e311e,Form,53,0,ESI,47,blank1,79
1655225142,503d3648cdee2f66660977435b8e311e,Form,53,0,ESI,47,blank2,50
1655225142,503d3648cdee2f66660977435b8e311e,Form,53,0,ESI,47,_REACTION_TIME_,16695
1655225142,503d3648cdee2f66660977435b8e311e,Form,27,0,ESI,21,blank1,120
1655225142,503d3648cdee2f66660977435b8e311e,Form,27,0,ESI,21,blank2,50
1655225142,503d3648cdee2f66660977435b8e311e,Form,27,0,ESI,21,_REACTION_TIME_,10014
1655225142,503d3648cdee2f66660977435b8e311e,Form,41,0,ESI,35,blank1,500
1655225142,503d3648cdee2f66660977435b8e311e,Form,41,0,ESI,35,blank2,400
1655225142,503d3648cdee2f66660977435b8e311e,Form,41,0,ESI,35,_REACTION_TIME_,14169
1655225142,503d3648cdee2f66660977435b8e311e,Form,65,0,ESI,59,blank1,60
1655225142,503d3648cdee2f66660977435b8e311e,Form,65,0,ESI,59,blank2,80
1655225142,503d3648cdee2f66660977435b8e311e,Form,65,0,ESI,59,_REACTION_TIME_,12134
1655225142,503d3648cdee2f66660977435b8e311e,Form,58,0,ESI,52,blank1,50
1655225142,503d3648cdee2f66660977435b8e311e,Form,58,0,ESI,52,blank2,100
1655225142,503d3648cdee2f66660977435b8e311e,Form,58,0,ESI,52,_REACTION_TIME_,22891
1655225142,503d3648cdee2f66660977435b8e311e,Form,23,0,ESI,17,blank1,603
1655225142,503d3648cdee2f66660977435b8e311e,Form,23,0,ESI,17,blank2,500
1655225142,503d3648cdee2f66660977435b8e311e,Form,23,0,ESI,17,_REACTION_TIME_,12505
1655225142,503d3648cdee2f66660977435b8e311e,Form,17,0,ESI,11,blank1,84
1655225142,503d3648cdee2f66660977435b8e311e,Form,17,0,ESI,11,blank2,0
1655225142,503d3648cdee2f66660977435b8e311e,Form,17,0,ESI,11,_REACTION_TIME_,8928
1655225142,503d3648cdee2f66660977435b8e311e,Form,51,0,ESI,45,blank1,122
1655225142,503d3648cdee2f66660977435b8e311e,Form,51,0,ESI,45,blank2,100
1655225142,503d3648cdee2f66660977435b8e311e,Form,51,0,ESI,45,_REACTION_TIME_,30407
1655225142,503d3648cdee2f66660977435b8e311e,Form,48,0,ESI,42,blank1,70
1655225142,503d3648cdee2f66660977435b8e311e,Form,48,0,ESI,42,blank2,90
1655225142,503d3648cdee2f66660977435b8e311e,Form,48,0,ESI,42,_REACTION_TIME_,11905
1655225142,503d3648cdee2f66660977435b8e311e,Form,24,0,ESI,18,blank1,70
1655225142,503d3648cdee2f66660977435b8e311e,Form,24,0,ESI,18,blank2,100
1655225142,503d3648cdee2f66660977435b8e311e,Form,24,0,ESI,18,_REACTION_TIME_,9662
1655225142,503d3648cdee2f66660977435b8e311e,Form,56,0,ESI,50,blank1,200
1655225142,503d3648cdee2f66660977435b8e311e,Form,56,0,ESI,50,blank2,300
1655225142,503d3648cdee2f66660977435b8e311e,Form,56,0,ESI,50,_REACTION_TIME_,18201
1655225142,503d3648cdee2f66660977435b8e311e,Form,14,0,ESI,8,blank1,350
1655225142,503d3648cdee2f66660977435b8e311e,Form,14,0,ESI,8,blank2,250
1655225142,503d3648cdee2f66660977435b8e311e,Form,14,0,ESI,8,_REACTION_TIME_,10383
1655225142,503d3648cdee2f66660977435b8e311e,Form,13,0,ESI,7,blank1,145
1655225142,503d3648cdee2f66660977435b8e311e,Form,13,0,ESI,7,blank2,180
1655225142,503d3648cdee2f66660977435b8e311e,Form,13,0,ESI,7,_REACTION_TIME_,15524
1655225142,503d3648cdee2f66660977435b8e311e,Form,59,0,ESI,53,blank1,1800
1655225142,503d3648cdee2f66660977435b8e311e,Form,59,0,ESI,53,blank2,2500
1655225142,503d3648cdee2f66660977435b8e311e,Form,59,0,ESI,53,_REACTION_TIME_,12425
1655225142,503d3648cdee2f66660977435b8e311e,Form,34,0,ESI,28,blank1,248
1655225142,503d3648cdee2f66660977435b8e311e,Form,34,0,ESI,28,blank2,190
1655225142,503d3648cdee2f66660977435b8e311e,Form,34,0,ESI,28,_REACTION_TIME_,16885
1655225142,503d3648cdee2f66660977435b8e311e,Form,16,0,ESI,10,blank1,130
1655225142,503d3648cdee2f66660977435b8e311e,Form,16,0,ESI,10,blank2,150
1655225142,503d3648cdee2f66660977435b8e311e,Form,16,0,ESI,10,_REACTION_TIME_,16408
1655225142,503d3648cdee2f66660977435b8e311e,Form,62,0,ESI,56,blank1,9688
1655225142,503d3648cdee2f66660977435b8e311e,Form,62,0,ESI,56,blank2,13000
1655225142,503d3648cdee2f66660977435b8e311e,Form,62,0,ESI,56,_REACTION_TIME_,71851
1655225142,503d3648cdee2f66660977435b8e311e,Form,50,0,ESI,44,blank1,15
1655225142,503d3648cdee2f66660977435b8e311e,Form,50,0,ESI,44,blank2,11
1655225142,503d3648cdee2f66660977435b8e311e,Form,50,0,ESI,44,_REACTION_TIME_,10475
1655225142,503d3648cdee2f66660977435b8e311e,Form,61,0,ESI,55,blank1,1041
1655225142,503d3648cdee2f66660977435b8e311e,Form,61,0,ESI,55,blank2,1560
1655225142,503d3648cdee2f66660977435b8e311e,Form,61,0,ESI,55,_REACTION_TIME_,29394
1655225142,503d3648cdee2f66660977435b8e311e,Form,47,0,ESI,41,blank1,0
1655225142,503d3648cdee2f66660977435b8e311e,Form,47,0,ESI,41,blank2,80
1655225142,503d3648cdee2f66660977435b8e311e,Form,47,0,ESI,41,_REACTION_TIME_,10833
1655225142,503d3648cdee2f66660977435b8e311e,Form,69,0,filler3,NULL,blank1,2501
1655225142,503d3648cdee2f66660977435b8e311e,Form,69,0,filler3,NULL,blank2,4000
1655225142,503d3648cdee2f66660977435b8e311e,Form,69,0,filler3,NULL,_REACTION_TIME_,10976
1655225142,503d3648cdee2f66660977435b8e311e,Form,12,0,ESI,6,blank1,8482
1655225142,503d3648cdee2f66660977435b8e311e,Form,12,0,ESI,6,blank2,12000
1655225142,503d3648cdee2f66660977435b8e311e,Form,12,0,ESI,6,_REACTION_TIME_,14931
1655225142,503d3648cdee2f66660977435b8e311e,Form,30,0,ESI,24,blank1,68
1655225142,503d3648cdee2f66660977435b8e311e,Form,30,0,ESI,24,blank2,61
1655225142,503d3648cdee2f66660977435b8e311e,Form,30,0,ESI,24,_REACTION_TIME_,9806
1655225142,503d3648cdee2f66660977435b8e311e,Form,60,0,ESI,54,blank1,130
1655225142,503d3648cdee2f66660977435b8e311e,Form,60,0,ESI,54,blank2,100
1655225142,503d3648cdee2f66660977435b8e311e,Form,60,0,ESI,54,_REACTION_TIME_,879749
1655225142,503d3648cdee2f66660977435b8e311e,Form,29,0,ESI,23,blank1,134
1655225142,503d3648cdee2f66660977435b8e311e,Form,29,0,ESI,23,blank2,100
1655225142,503d3648cdee2f66660977435b8e311e,Form,29,0,ESI,23,_REACTION_TIME_,13026
1655225142,503d3648cdee2f66660977435b8e311e,Form,31,0,ESI,25,blank1,120
1655225142,503d3648cdee2f66660977435b8e311e,Form,31,0,ESI,25,blank2,100
1655225142,503d3648cdee2f66660977435b8e311e,Form,31,0,ESI,25,_REACTION_TIME_,15076
1655225142,503d3648cdee2f66660977435b8e311e,Form,52,0,ESI,46,blank1,60
1655225142,503d3648cdee2f66660977435b8e311e,Form,52,0,ESI,46,blank2,40
1655225142,503d3648cdee2f66660977435b8e311e,Form,52,0,ESI,46,_REACTION_TIME_,14446
1655225142,503d3648cdee2f66660977435b8e311e,Form,37,0,ESI,31,blank1,44
1655225142,503d3648cdee2f66660977435b8e311e,Form,37,0,ESI,31,blank2,80
1655225142,503d3648cdee2f66660977435b8e311e,Form,37,0,ESI,31,_REACTION_TIME_,10305
1655225142,503d3648cdee2f66660977435b8e311e,Form,18,0,ESI,12,blank1,219
1655225142,503d3648cdee2f66660977435b8e311e,Form,18,0,ESI,12,blank2,300
1655225142,503d3648cdee2f66660977435b8e311e,Form,18,0,ESI,12,_REACTION_TIME_,8814
1655225142,503d3648cdee2f66660977435b8e311e,Form,33,0,ESI,27,blank1,48
1655225142,503d3648cdee2f66660977435b8e311e,Form,33,0,ESI,27,blank2,20
1655225142,503d3648cdee2f66660977435b8e311e,Form,33,0,ESI,27,_REACTION_TIME_,10483
1655225142,503d3648cdee2f66660977435b8e311e,Form,39,0,ESI,33,blank1,21
1655225142,503d3648cdee2f66660977435b8e311e,Form,39,0,ESI,33,blank2,40
1655225142,503d3648cdee2f66660977435b8e311e,Form,39,0,ESI,33,_REACTION_TIME_,8515
1655225142,503d3648cdee2f66660977435b8e311e,Form,22,0,ESI,16,blank1,128
1655225142,503d3648cdee2f66660977435b8e311e,Form,22,0,ESI,16,blank2,140
1655225142,503d3648cdee2f66660977435b8e311e,Form,22,0,ESI,16,_REACTION_TIME_,7179
1655225142,503d3648cdee2f66660977435b8e311e,Form,10,0,ESI,4,blank1,392
1655225142,503d3648cdee2f66660977435b8e311e,Form,10,0,ESI,4,blank2,270
1655225142,503d3648cdee2f66660977435b8e311e,Form,10,0,ESI,4,_REACTION_TIME_,12069
1655225142,503d3648cdee2f66660977435b8e311e,Form,44,0,ESI,38,blank1,104
1655225142,503d3648cdee2f66660977435b8e311e,Form,44,0,ESI,38,blank2,80
1655225142,503d3648cdee2f66660977435b8e311e,Form,44,0,ESI,38,_REACTION_TIME_,8120
1655225142,503d3648cdee2f66660977435b8e311e,Form,43,0,ESI,37,blank1,6336
1655225142,503d3648cdee2f66660977435b8e311e,Form,43,0,ESI,37,blank2,12000
1655225142,503d3648cdee2f66660977435b8e311e,Form,43,0,ESI,37,_REACTION_TIME_,12130
1655225142,503d3648cdee2f66660977435b8e311e,Form,35,0,ESI,29,blank1,100
1655225142,503d3648cdee2f66660977435b8e311e,Form,35,0,ESI,29,blank2,150
1655225142,503d3648cdee2f66660977435b8e311e,Form,35,0,ESI,29,_REACTION_TIME_,18959
1655225142,503d3648cdee2f66660977435b8e311e,Form,66,0,ESI,60,blank1,150
1655225142,503d3648cdee2f66660977435b8e311e,Form,66,0,ESI,60,blank2,100
1655225142,503d3648cdee2f66660977435b8e311e,Form,66,0,ESI,60,_REACTION_TIME_,12443
1655225142,503d3648cdee2f66660977435b8e311e,Form,8,0,ESI,2,blank1,250
1655225142,503d3648cdee2f66660977435b8e311e,Form,8,0,ESI,2,blank2,350
1655225142,503d3648cdee2f66660977435b8e311e,Form,8,0,ESI,2,_REACTION_TIME_,10578
1655225142,503d3648cdee2f66660977435b8e311e,Form,55,0,ESI,49,blank1,116
1655225142,503d3648cdee2f66660977435b8e311e,Form,55,0,ESI,49,blank2,50
1655225142,503d3648cdee2f66660977435b8e311e,Form,55,0,ESI,49,_REACTION_TIME_,11658
1655225142,503d3648cdee2f66660977435b8e311e,Form,40,0,ESI,34,blank1,19
1655225142,503d3648cdee2f66660977435b8e311e,Form,40,0,ESI,34,blank2,10
1655225142,503d3648cdee2f66660977435b8e311e,Form,40,0,ESI,34,_REACTION_TIME_,12650
1655225142,503d3648cdee2f66660977435b8e311e,Form,49,0,ESI,43,blank1,95
1655225142,503d3648cdee2f66660977435b8e311e,Form,49,0,ESI,43,blank2,50
1655225142,503d3648cdee2f66660977435b8e311e,Form,49,0,ESI,43,_REACTION_TIME_,67270
1655225142,503d3648cdee2f66660977435b8e311e,Form,9,0,ESI,3,blank1,422
1655225142,503d3648cdee2f66660977435b8e311e,Form,9,0,ESI,3,blank2,600
1655225142,503d3648cdee2f66660977435b8e311e,Form,9,0,ESI,3,_REACTION_TIME_,6899
1655225142,503d3648cdee2f66660977435b8e311e,Form,68,0,filler2,NULL,blank1,45
1655225142,503d3648cdee2f66660977435b8e311e,Form,68,0,filler2,NULL,blank2,60
1655225142,503d3648cdee2f66660977435b8e311e,Form,68,0,filler2,NULL,_REACTION_TIME_,13063
1655225142,503d3648cdee2f66660977435b8e311e,Form,2,0,brexit,NULL,prolific_id,6102c62a058c1739c6a51443
1655225142,503d3648cdee2f66660977435b8e311e,Form,2,0,brexit,NULL,completion_code,634BCF6E
1655225142,503d3648cdee2f66660977435b8e311e,Form,2,0,brexit,NULL,_REACTION_TIME_,28091
#
# Results on Tue, 14 Jun 2022 16:51:52 GMT
# USER AGENT: Mozilla/5.0 (iPhone; CPU iPhone OS 14_4_2 like Mac OS X) AppleWebKit/605.1.15 (KHTML, like Gecko) Version/14.0.3 Mobile/15E148 Safari/604.1
# Design number was non-random = 2
#
# Columns below this comment are as follows:
# 1. Results reception time.
# 2. MD5 hash of participant's IP address.
# 3. Controller name.
# 4. Order number of item.
# 5. Inner element number.
# 6. Label.
# 7. Latin Square Group.
# 8. Field name.
# 9. Field value.
1655225512,7f63501bae7adc0482771c4cc42ccee2,Form,1,0,consent,NULL,consent,yes
1655225512,7f63501bae7adc0482771c4cc42ccee2,Form,1,0,consent,NULL,_REACTION_TIME_,8277
1655225512,7f63501bae7adc0482771c4cc42ccee2,Form,4,0,introfirst,NULL,ID,6046a188dcbc890e9b609f20
1655225512,7f63501bae7adc0482771c4cc42ccee2,Form,4,0,introfirst,NULL,age,24
1655225512,7f63501bae7adc0482771c4cc42ccee2,Form,4,0,introfirst,NULL,natlang,English
1655225512,7f63501bae7adc0482771c4cc42ccee2,Form,4,0,introfirst,NULL,state,Ohio
1655225512,7f63501bae7adc0482771c4cc42ccee2,Form,4,0,introfirst,NULL,parentlang,English
1655225512,7f63501bae7adc0482771c4cc42ccee2,Form,4,0,introfirst,NULL,domlang,English
1655225512,7f63501bae7adc0482771c4cc42ccee2,Form,4,0,introfirst,NULL,otherlang,No
1655225512,7f63501bae7adc0482771c4cc42ccee2,Form,4,0,introfirst,NULL,gender,female
1655225512,7f63501bae7adc0482771c4cc42ccee2,Form,4,0,introfirst,NULL,_REACTION_TIME_,42231
1655225512,7f63501bae7adc0482771c4cc42ccee2,Form,5,0,intro,NULL,question1,one
1655225512,7f63501bae7adc0482771c4cc42ccee2,Form,5,0,intro,NULL,_REACTION_TIME_,14243
1655225512,7f63501bae7adc0482771c4cc42ccee2,Form,15,0,ESI,9,blank1,122
1655225512,7f63501bae7adc0482771c4cc42ccee2,Form,15,0,ESI,9,blank2,150
1655225512,7f63501bae7adc0482771c4cc42ccee2,Form,15,0,ESI,9,_REACTION_TIME_,15216
1655225512,7f63501bae7adc0482771c4cc42ccee2,Form,25,0,ESI,19,blank1,0
1655225512,7f63501bae7adc0482771c4cc42ccee2,Form,25,0,ESI,19,blank2,135
1655225512,7f63501bae7adc0482771c4cc42ccee2,Form,25,0,ESI,19,_REACTION_TIME_,16721
1655225512,7f63501bae7adc0482771c4cc42ccee2,Form,30,0,ESI,24,blank1,68
1655225512,7f63501bae7adc0482771c4cc42ccee2,Form,30,0,ESI,24,blank2,78
1655225512,7f63501bae7adc0482771c4cc42ccee2,Form,30,0,ESI,24,_REACTION_TIME_,10391
1655225512,7f63501bae7adc0482771c4cc42ccee2,Form,47,0,ESI,41,blank1,0
1655225512,7f63501bae7adc0482771c4cc42ccee2,Form,47,0,ESI,41,blank2,80
1655225512,7f63501bae7adc0482771c4cc42ccee2,Form,47,0,ESI,41,_REACTION_TIME_,9193
1655225512,7f63501bae7adc0482771c4cc42ccee2,Form,37,0,ESI,31,blank1,44
1655225512,7f63501bae7adc0482771c4cc42ccee2,Form,37,0,ESI,31,blank2,70
1655225512,7f63501bae7adc0482771c4cc42ccee2,Form,37,0,ESI,31,_REACTION_TIME_,11313
1655225512,7f63501bae7adc0482771c4cc42ccee2,Form,14,0,ESI,8,blank1,300
1655225512,7f63501bae7adc0482771c4cc42ccee2,Form,14,0,ESI,8,blank2,360
1655225512,7f63501bae7adc0482771c4cc42ccee2,Form,14,0,ESI,8,_REACTION_TIME_,14962
1655225512,7f63501bae7adc0482771c4cc42ccee2,Form,54,0,ESI,48,blank1,185
1655225512,7f63501bae7adc0482771c4cc42ccee2,Form,54,0,ESI,48,blank2,215
1655225512,7f63501bae7adc0482771c4cc42ccee2,Form,54,0,ESI,48,_REACTION_TIME_,15319
1655225512,7f63501bae7adc0482771c4cc42ccee2,Form,58,0,ESI,52,blank1,0
1655225512,7f63501bae7adc0482771c4cc42ccee2,Form,58,0,ESI,52,blank2,100
1655225512,7f63501bae7adc0482771c4cc42ccee2,Form,58,0,ESI,52,_REACTION_TIME_,16465
1655225512,7f63501bae7adc0482771c4cc42ccee2,Form,20,0,ESI,14,blank1,230
1655225512,7f63501bae7adc0482771c4cc42ccee2,Form,20,0,ESI,14,blank2,250
1655225512,7f63501bae7adc0482771c4cc42ccee2,Form,20,0,ESI,14,_REACTION_TIME_,10271
1655225512,7f63501bae7adc0482771c4cc42ccee2,Form,8,0,ESI,2,blank1,275
1655225512,7f63501bae7adc0482771c4cc42ccee2,Form,8,0,ESI,2,blank2,300
1655225512,7f63501bae7adc0482771c4cc42ccee2,Form,8,0,ESI,2,_REACTION_TIME_,12260
1655225512,7f63501bae7adc0482771c4cc42ccee2,Form,56,0,ESI,50,blank1,200
1655225512,7f63501bae7adc0482771c4cc42ccee2,Form,56,0,ESI,50,blank2,300
1655225512,7f63501bae7adc0482771c4cc42ccee2,Form,56,0,ESI,50,_REACTION_TIME_,13811
1655225512,7f63501bae7adc0482771c4cc42ccee2,Form,61,0,ESI,55,blank1,1200
1655225512,7f63501bae7adc0482771c4cc42ccee2,Form,61,0,ESI,55,blank2,1560
1655225512,7f63501bae7adc0482771c4cc42ccee2,Form,61,0,ESI,55,_REACTION_TIME_,18686
1655225512,7f63501bae7adc0482771c4cc42ccee2,Form,42,0,ESI,36,blank1,65
1655225512,7f63501bae7adc0482771c4cc42ccee2,Form,42,0,ESI,36,blank2,107
1655225512,7f63501bae7adc0482771c4cc42ccee2,Form,42,0,ESI,36,_REACTION_TIME_,11895
1655225512,7f63501bae7adc0482771c4cc42ccee2,Form,10,0,ESI,4,blank1,285
1655225512,7f63501bae7adc0482771c4cc42ccee2,Form,10,0,ESI,4,blank2,333
1655225512,7f63501bae7adc0482771c4cc42ccee2,Form,10,0,ESI,4,_REACTION_TIME_,11456
1655225512,7f63501bae7adc0482771c4cc42ccee2,Form,52,0,ESI,46,blank1,56
1655225512,7f63501bae7adc0482771c4cc42ccee2,Form,52,0,ESI,46,blank2,95
1655225512,7f63501bae7adc0482771c4cc42ccee2,Form,52,0,ESI,46,_REACTION_TIME_,52137
1655225512,7f63501bae7adc0482771c4cc42ccee2,Form,21,0,ESI,15,blank1,90
1655225512,7f63501bae7adc0482771c4cc42ccee2,Form,21,0,ESI,15,blank2,123
1655225512,7f63501bae7adc0482771c4cc42ccee2,Form,21,0,ESI,15,_REACTION_TIME_,11401
1655225512,7f63501bae7adc0482771c4cc42ccee2,Form,9,0,ESI,3,blank1,430
1655225512,7f63501bae7adc0482771c4cc42ccee2,Form,9,0,ESI,3,blank2,457
1655225512,7f63501bae7adc0482771c4cc42ccee2,Form,9,0,ESI,3,_REACTION_TIME_,54605
1655225512,7f63501bae7adc0482771c4cc42ccee2,Form,66,0,ESI,60,blank1,185
1655225512,7f63501bae7adc0482771c4cc42ccee2,Form,66,0,ESI,60,blank2,250
1655225512,7f63501bae7adc0482771c4cc42ccee2,Form,66,0,ESI,60,_REACTION_TIME_,11303
1655225512,7f63501bae7adc0482771c4cc42ccee2,Form,19,0,ESI,13,blank1,5
1655225512,7f63501bae7adc0482771c4cc42ccee2,Form,19,0,ESI,13,blank2,15
1655225512,7f63501bae7adc0482771c4cc42ccee2,Form,19,0,ESI,13,_REACTION_TIME_,8804
1655225512,7f63501bae7adc0482771c4cc42ccee2,Form,44,0,ESI,38,blank1,70
1655225512,7f63501bae7adc0482771c4cc42ccee2,Form,44,0,ESI,38,blank2,104
1655225512,7f63501bae7adc0482771c4cc42ccee2,Form,44,0,ESI,38,_REACTION_TIME_,10305
1655225512,7f63501bae7adc0482771c4cc42ccee2,Form,69,0,filler3,NULL,blank1,4000
1655225512,7f63501bae7adc0482771c4cc42ccee2,Form,69,0,filler3,NULL,blank2,20000
1655225512,7f63501bae7adc0482771c4cc42ccee2,Form,69,0,filler3,NULL,_REACTION_TIME_,19196
1655225512,7f63501bae7adc0482771c4cc42ccee2,Form,29,0,ESI,23,blank1,100
1655225512,7f63501bae7adc0482771c4cc42ccee2,Form,29,0,ESI,23,blank2,134
1655225512,7f63501bae7adc0482771c4cc42ccee2,Form,29,0,ESI,23,_REACTION_TIME_,19351
1655225512,7f63501bae7adc0482771c4cc42ccee2,Form,55,0,ESI,49,blank1,0
1655225512,7f63501bae7adc0482771c4cc42ccee2,Form,55,0,ESI,49,blank2,116
1655225512,7f63501bae7adc0482771c4cc42ccee2,Form,55,0,ESI,49,_REACTION_TIME_,11551
1655225512,7f63501bae7adc0482771c4cc42ccee2,Form,38,0,ESI,32,blank1,29
1655225512,7f63501bae7adc0482771c4cc42ccee2,Form,38,0,ESI,32,blank2,39
1655225512,7f63501bae7adc0482771c4cc42ccee2,Form,38,0,ESI,32,_REACTION_TIME_,9474
1655225512,7f63501bae7adc0482771c4cc42ccee2,Form,60,0,ESI,54,blank1,0
1655225512,7f63501bae7adc0482771c4cc42ccee2,Form,60,0,ESI,54,blank2,119
1655225512,7f63501bae7adc0482771c4cc42ccee2,Form,60,0,ESI,54,_REACTION_TIME_,8725
1655225512,7f63501bae7adc0482771c4cc42ccee2,Form,22,0,ESI,16,blank1,150
1655225512,7f63501bae7adc0482771c4cc42ccee2,Form,22,0,ESI,16,blank2,200
1655225512,7f63501bae7adc0482771c4cc42ccee2,Form,22,0,ESI,16,_REACTION_TIME_,13836
1655225512,7f63501bae7adc0482771c4cc42ccee2,Form,65,0,ESI,59,blank1,50
1655225512,7f63501bae7adc0482771c4cc42ccee2,Form,65,0,ESI,59,blank2,80
1655225512,7f63501bae7adc0482771c4cc42ccee2,Form,65,0,ESI,59,_REACTION_TIME_,20024
1655225512,7f63501bae7adc0482771c4cc42ccee2,Form,45,0,ESI,39,blank1,113
1655225512,7f63501bae7adc0482771c4cc42ccee2,Form,45,0,ESI,39,blank2,175
1655225512,7f63501bae7adc0482771c4cc42ccee2,Form,45,0,ESI,39,_REACTION_TIME_,31658
1655225512,7f63501bae7adc0482771c4cc42ccee2,Form,49,0,ESI,43,blank1,0
1655225512,7f63501bae7adc0482771c4cc42ccee2,Form,49,0,ESI,43,blank2,96
1655225512,7f63501bae7adc0482771c4cc42ccee2,Form,49,0,ESI,43,_REACTION_TIME_,9206
1655225512,7f63501bae7adc0482771c4cc42ccee2,Form,23,0,ESI,17,blank1,0
1655225512,7f63501bae7adc0482771c4cc42ccee2,Form,23,0,ESI,17,blank2,575
1655225512,7f63501bae7adc0482771c4cc42ccee2,Form,23,0,ESI,17,_REACTION_TIME_,11451
1655225512,7f63501bae7adc0482771c4cc42ccee2,Form,16,0,ESI,10,blank1,100
1655225512,7f63501bae7adc0482771c4cc42ccee2,Form,16,0,ESI,10,blank2,135
1655225512,7f63501bae7adc0482771c4cc42ccee2,Form,16,0,ESI,10,_REACTION_TIME_,9460
1655225512,7f63501bae7adc0482771c4cc42ccee2,Form,40,0,ESI,34,blank1,15
1655225512,7f63501bae7adc0482771c4cc42ccee2,Form,40,0,ESI,34,blank2,19
1655225512,7f63501bae7adc0482771c4cc42ccee2,Form,40,0,ESI,34,_REACTION_TIME_,25684
1655225512,7f63501bae7adc0482771c4cc42ccee2,Form,12,0,ESI,6,blank1,10000
1655225512,7f63501bae7adc0482771c4cc42ccee2,Form,12,0,ESI,6,blank2,12000
1655225512,7f63501bae7adc0482771c4cc42ccee2,Form,12,0,ESI,6,_REACTION_TIME_,18943
1655225512,7f63501bae7adc0482771c4cc42ccee2,Form,27,0,ESI,21,blank1,0
1655225512,7f63501bae7adc0482771c4cc42ccee2,Form,27,0,ESI,21,blank2,120
1655225512,7f63501bae7adc0482771c4cc42ccee2,Form,27,0,ESI,21,_REACTION_TIME_,15096
1655225512,7f63501bae7adc0482771c4cc42ccee2,Form,41,0,ESI,35,blank1,400
1655225512,7f63501bae7adc0482771c4cc42ccee2,Form,41,0,ESI,35,blank2,600
1655225512,7f63501bae7adc0482771c4cc42ccee2,Form,41,0,ESI,35,_REACTION_TIME_,11260
1655225512,7f63501bae7adc0482771c4cc42ccee2,Form,24,0,ESI,18,blank1,90
1655225512,7f63501bae7adc0482771c4cc42ccee2,Form,24,0,ESI,18,blank2,130
1655225512,7f63501bae7adc0482771c4cc42ccee2,Form,24,0,ESI,18,_REACTION_TIME_,19639
1655225512,7f63501bae7adc0482771c4cc42ccee2,Form,39,0,ESI,33,blank1,21
1655225512,7f63501bae7adc0482771c4cc42ccee2,Form,39,0,ESI,33,blank2,30
1655225512,7f63501bae7adc0482771c4cc42ccee2,Form,39,0,ESI,33,_REACTION_TIME_,22549
1655225512,7f63501bae7adc0482771c4cc42ccee2,Form,26,0,ESI,20,blank1,900
1655225512,7f63501bae7adc0482771c4cc42ccee2,Form,26,0,ESI,20,blank2,1700
1655225512,7f63501bae7adc0482771c4cc42ccee2,Form,26,0,ESI,20,_REACTION_TIME_,9891
1655225512,7f63501bae7adc0482771c4cc42ccee2,Form,48,0,ESI,42,blank1,79
1655225512,7f63501bae7adc0482771c4cc42ccee2,Form,48,0,ESI,42,blank2,179
1655225512,7f63501bae7adc0482771c4cc42ccee2,Form,48,0,ESI,42,_REACTION_TIME_,9736
1655225512,7f63501bae7adc0482771c4cc42ccee2,Form,34,0,ESI,28,blank1,248
1655225512,7f63501bae7adc0482771c4cc42ccee2,Form,34,0,ESI,28,blank2,350
1655225512,7f63501bae7adc0482771c4cc42ccee2,Form,34,0,ESI,28,_REACTION_TIME_,9070
1655225512,7f63501bae7adc0482771c4cc42ccee2,Form,64,0,ESI,58,blank1,0
1655225512,7f63501bae7adc0482771c4cc42ccee2,Form,64,0,ESI,58,blank2,30
1655225512,7f63501bae7adc0482771c4cc42ccee2,Form,64,0,ESI,58,_REACTION_TIME_,9285
1655225512,7f63501bae7adc0482771c4cc42ccee2,Form,68,0,filler2,NULL,blank1,50
1655225512,7f63501bae7adc0482771c4cc42ccee2,Form,68,0,filler2,NULL,blank2,100
1655225512,7f63501bae7adc0482771c4cc42ccee2,Form,68,0,filler2,NULL,_REACTION_TIME_,7054
1655225512,7f63501bae7adc0482771c4cc42ccee2,Form,63,0,ESI,57,blank1,165
1655225512,7f63501bae7adc0482771c4cc42ccee2,Form,63,0,ESI,57,blank2,250
1655225512,7f63501bae7adc0482771c4cc42ccee2,Form,63,0,ESI,57,_REACTION_TIME_,11690
1655225512,7f63501bae7adc0482771c4cc42ccee2,Form,59,0,ESI,53,blank1,1850
1655225512,7f63501bae7adc0482771c4cc42ccee2,Form,59,0,ESI,53,blank2,3000
1655225512,7f63501bae7adc0482771c4cc42ccee2,Form,59,0,ESI,53,_REACTION_TIME_,13209
1655225512,7f63501bae7adc0482771c4cc42ccee2,Form,32,0,ESI,26,blank1,181
1655225512,7f63501bae7adc0482771c4cc42ccee2,Form,32,0,ESI,26,blank2,300
1655225512,7f63501bae7adc0482771c4cc42ccee2,Form,32,0,ESI,26,_REACTION_TIME_,8457
1655225512,7f63501bae7adc0482771c4cc42ccee2,Form,62,0,ESI,56,blank1,0
1655225512,7f63501bae7adc0482771c4cc42ccee2,Form,62,0,ESI,56,blank2,10000
1655225512,7f63501bae7adc0482771c4cc42ccee2,Form,62,0,ESI,56,_REACTION_TIME_,8345
1655225512,7f63501bae7adc0482771c4cc42ccee2,Form,33,0,ESI,27,blank1,0
1655225512,7f63501bae7adc0482771c4cc42ccee2,Form,33,0,ESI,27,blank2,48
1655225512,7f63501bae7adc0482771c4cc42ccee2,Form,33,0,ESI,27,_REACTION_TIME_,24330
1655225512,7f63501bae7adc0482771c4cc42ccee2,Form,53,0,ESI,47,blank1,0
1655225512,7f63501bae7adc0482771c4cc42ccee2,Form,53,0,ESI,47,blank2,85
1655225512,7f63501bae7adc0482771c4cc42ccee2,Form,53,0,ESI,47,_REACTION_TIME_,10284
1655225512,7f63501bae7adc0482771c4cc42ccee2,Form,31,0,ESI,25,blank1,0
1655225512,7f63501bae7adc0482771c4cc42ccee2,Form,31,0,ESI,25,blank2,121
1655225512,7f63501bae7adc0482771c4cc42ccee2,Form,31,0,ESI,25,_REACTION_TIME_,7770
1655225512,7f63501bae7adc0482771c4cc42ccee2,Form,7,0,ESI,1,blank1,37
1655225512,7f63501bae7adc0482771c4cc42ccee2,Form,7,0,ESI,1,blank2,43
1655225512,7f63501bae7adc0482771c4cc42ccee2,Form,7,0,ESI,1,_REACTION_TIME_,104943
1655225512,7f63501bae7adc0482771c4cc42ccee2,Form,11,0,ESI,5,blank1,2650
1655225512,7f63501bae7adc0482771c4cc42ccee2,Form,11,0,ESI,5,blank2,2750
1655225512,7f63501bae7adc0482771c4cc42ccee2,Form,11,0,ESI,5,_REACTION_TIME_,50005
1655225512,7f63501bae7adc0482771c4cc42ccee2,Form,17,0,ESI,11,blank1,50
1655225512,7f63501bae7adc0482771c4cc42ccee2,Form,17,0,ESI,11,blank2,70
1655225512,7f63501bae7adc0482771c4cc42ccee2,Form,17,0,ESI,11,_REACTION_TIME_,8291
1655225512,7f63501bae7adc0482771c4cc42ccee2,Form,18,0,ESI,12,blank1,235
1655225512,7f63501bae7adc0482771c4cc42ccee2,Form,18,0,ESI,12,blank2,270
1655225512,7f63501bae7adc0482771c4cc42ccee2,Form,18,0,ESI,12,_REACTION_TIME_,10858
1655225512,7f63501bae7adc0482771c4cc42ccee2,Form,46,0,ESI,40,blank1,150
1655225512,7f63501bae7adc0482771c4cc42ccee2,Form,46,0,ESI,40,blank2,199
1655225512,7f63501bae7adc0482771c4cc42ccee2,Form,46,0,ESI,40,_REACTION_TIME_,37413
1655225512,7f63501bae7adc0482771c4cc42ccee2,Form,57,0,ESI,51,blank1,12000
1655225512,7f63501bae7adc0482771c4cc42ccee2,Form,57,0,ESI,51,blank2,15000
1655225512,7f63501bae7adc0482771c4cc42ccee2,Form,57,0,ESI,51,_REACTION_TIME_,15074
1655225512,7f63501bae7adc0482771c4cc42ccee2,Form,43,0,ESI,37,blank1,6336
1655225512,7f63501bae7adc0482771c4cc42ccee2,Form,43,0,ESI,37,blank2,7999
1655225512,7f63501bae7adc0482771c4cc42ccee2,Form,43,0,ESI,37,_REACTION_TIME_,16057
1655225512,7f63501bae7adc0482771c4cc42ccee2,Form,28,0,ESI,22,blank1,96
1655225512,7f63501bae7adc0482771c4cc42ccee2,Form,28,0,ESI,22,blank2,135
1655225512,7f63501bae7adc0482771c4cc42ccee2,Form,28,0,ESI,22,_REACTION_TIME_,42303
1655225512,7f63501bae7adc0482771c4cc42ccee2,Form,50,0,ESI,44,blank1,15
1655225512,7f63501bae7adc0482771c4cc42ccee2,Form,50,0,ESI,44,blank2,21
1655225512,7f63501bae7adc0482771c4cc42ccee2,Form,50,0,ESI,44,_REACTION_TIME_,12688
1655225512,7f63501bae7adc0482771c4cc42ccee2,Form,35,0,ESI,29,blank1,130
1655225512,7f63501bae7adc0482771c4cc42ccee2,Form,35,0,ESI,29,blank2,175
1655225512,7f63501bae7adc0482771c4cc42ccee2,Form,35,0,ESI,29,_REACTION_TIME_,12011
1655225512,7f63501bae7adc0482771c4cc42ccee2,Form,51,0,ESI,45,blank1,115
1655225512,7f63501bae7adc0482771c4cc42ccee2,Form,51,0,ESI,45,blank2,123
1655225512,7f63501bae7adc0482771c4cc42ccee2,Form,51,0,ESI,45,_REACTION_TIME_,18050
1655225512,7f63501bae7adc0482771c4cc42ccee2,Form,36,0,ESI,30,blank1,350
1655225512,7f63501bae7adc0482771c4cc42ccee2,Form,36,0,ESI,30,blank2,395
1655225512,7f63501bae7adc0482771c4cc42ccee2,Form,36,0,ESI,30,_REACTION_TIME_,13131
1655225512,7f63501bae7adc0482771c4cc42ccee2,Form,13,0,ESI,7,blank1,150
1655225512,7f63501bae7adc0482771c4cc42ccee2,Form,13,0,ESI,7,blank2,170
1655225512,7f63501bae7adc0482771c4cc42ccee2,Form,13,0,ESI,7,_REACTION_TIME_,10736
1655225512,7f63501bae7adc0482771c4cc42ccee2,Form,67,0,filler1,NULL,blank1,65
1655225512,7f63501bae7adc0482771c4cc42ccee2,Form,67,0,filler1,NULL,blank2,75
1655225512,7f63501bae7adc0482771c4cc42ccee2,Form,67,0,filler1,NULL,_REACTION_TIME_,8884
1655225512,7f63501bae7adc0482771c4cc42ccee2,Form,2,0,brexit,NULL,prolific_id,6046a188dcbc890e9b609f20
1655225512,7f63501bae7adc0482771c4cc42ccee2,Form,2,0,brexit,NULL,completion_code,634BCF6E
1655225512,7f63501bae7adc0482771c4cc42ccee2,Form,2,0,brexit,NULL,_REACTION_TIME_,36790
#
# Results on Tue, 14 Jun 2022 16:56:01 GMT
# USER AGENT: Mozilla/5.0 (iPhone; CPU iPhone OS 15_5 like Mac OS X) AppleWebKit/605.1.15 (KHTML, like Gecko) Version/15.5 Mobile/15E148 Safari/604.1
# Design number was non-random = 2
#
# Columns below this comment are as follows:
# 1. Results reception time.
# 2. MD5 hash of participant's IP address.
# 3. Controller name.
# 4. Order number of item.
# 5. Inner element number.
# 6. Label.
# 7. Latin Square Group.
# 8. Field name.
# 9. Field value.
1655225761,89b9a0e8dc8e47eb64fe282d05356ff9,Form,1,0,consent,NULL,consent,yes
1655225761,89b9a0e8dc8e47eb64fe282d05356ff9,Form,1,0,consent,NULL,_REACTION_TIME_,7972
1655225761,89b9a0e8dc8e47eb64fe282d05356ff9,Form,4,0,introfirst,NULL,ID,5cdae588cc071e001a1cbbf0
1655225761,89b9a0e8dc8e47eb64fe282d05356ff9,Form,4,0,introfirst,NULL,age,27
1655225761,89b9a0e8dc8e47eb64fe282d05356ff9,Form,4,0,introfirst,NULL,natlang,English
1655225761,89b9a0e8dc8e47eb64fe282d05356ff9,Form,4,0,introfirst,NULL,state,Massachusetts
1655225761,89b9a0e8dc8e47eb64fe282d05356ff9,Form,4,0,introfirst,NULL,parentlang,English
1655225761,89b9a0e8dc8e47eb64fe282d05356ff9,Form,4,0,introfirst,NULL,domlang,English
1655225761,89b9a0e8dc8e47eb64fe282d05356ff9,Form,4,0,introfirst,NULL,otherlang,No
1655225761,89b9a0e8dc8e47eb64fe282d05356ff9,Form,4,0,introfirst,NULL,gender,male
1655225761,89b9a0e8dc8e47eb64fe282d05356ff9,Form,4,0,introfirst,NULL,_REACTION_TIME_,49823
1655225761,89b9a0e8dc8e47eb64fe282d05356ff9,Form,5,0,intro,NULL,question1,one
1655225761,89b9a0e8dc8e47eb64fe282d05356ff9,Form,5,0,intro,NULL,_REACTION_TIME_,21951
1655225761,89b9a0e8dc8e47eb64fe282d05356ff9,Form,57,0,ESI,51,blank1,9689
1655225761,89b9a0e8dc8e47eb64fe282d05356ff9,Form,57,0,ESI,51,blank2,14533
1655225761,89b9a0e8dc8e47eb64fe282d05356ff9,Form,57,0,ESI,51,_REACTION_TIME_,28197
1655225761,89b9a0e8dc8e47eb64fe282d05356ff9,Form,27,0,ESI,21,blank1,1
1655225761,89b9a0e8dc8e47eb64fe282d05356ff9,Form,27,0,ESI,21,blank2,120
1655225761,89b9a0e8dc8e47eb64fe282d05356ff9,Form,27,0,ESI,21,_REACTION_TIME_,13949
1655225761,89b9a0e8dc8e47eb64fe282d05356ff9,Form,44,0,ESI,38,blank1,80
1655225761,89b9a0e8dc8e47eb64fe282d05356ff9,Form,44,0,ESI,38,blank2,104
1655225761,89b9a0e8dc8e47eb64fe282d05356ff9,Form,44,0,ESI,38,_REACTION_TIME_,22651
1655225761,89b9a0e8dc8e47eb64fe282d05356ff9,Form,21,0,ESI,15,blank1,0
1655225761,89b9a0e8dc8e47eb64fe282d05356ff9,Form,21,0,ESI,15,blank2,110
1655225761,89b9a0e8dc8e47eb64fe282d05356ff9,Form,21,0,ESI,15,_REACTION_TIME_,26174
1655225761,89b9a0e8dc8e47eb64fe282d05356ff9,Form,26,0,ESI,20,blank1,800
1655225761,89b9a0e8dc8e47eb64fe282d05356ff9,Form,26,0,ESI,20,blank2,1100
1655225761,89b9a0e8dc8e47eb64fe282d05356ff9,Form,26,0,ESI,20,_REACTION_TIME_,22699
1655225761,89b9a0e8dc8e47eb64fe282d05356ff9,Form,55,0,ESI,49,blank1,1
1655225761,89b9a0e8dc8e47eb64fe282d05356ff9,Form,55,0,ESI,49,blank2,115
1655225761,89b9a0e8dc8e47eb64fe282d05356ff9,Form,55,0,ESI,49,_REACTION_TIME_,16612
1655225761,89b9a0e8dc8e47eb64fe282d05356ff9,Form,46,0,ESI,40,blank1,130
1655225761,89b9a0e8dc8e47eb64fe282d05356ff9,Form,46,0,ESI,40,blank2,170
1655225761,89b9a0e8dc8e47eb64fe282d05356ff9,Form,46,0,ESI,40,_REACTION_TIME_,23242
1655225761,89b9a0e8dc8e47eb64fe282d05356ff9,Form,24,0,ESI,18,blank1,100
1655225761,89b9a0e8dc8e47eb64fe282d05356ff9,Form,24,0,ESI,18,blank2,140
1655225761,89b9a0e8dc8e47eb64fe282d05356ff9,Form,24,0,ESI,18,_REACTION_TIME_,14456
1655225761,89b9a0e8dc8e47eb64fe282d05356ff9,Form,17,0,ESI,11,blank1,1
1655225761,89b9a0e8dc8e47eb64fe282d05356ff9,Form,17,0,ESI,11,blank2,50
1655225761,89b9a0e8dc8e47eb64fe282d05356ff9,Form,17,0,ESI,11,_REACTION_TIME_,19528
1655225761,89b9a0e8dc8e47eb64fe282d05356ff9,Form,60,0,ESI,54,blank1,80
1655225761,89b9a0e8dc8e47eb64fe282d05356ff9,Form,60,0,ESI,54,blank2,119
1655225761,89b9a0e8dc8e47eb64fe282d05356ff9,Form,60,0,ESI,54,_REACTION_TIME_,22181
1655225761,89b9a0e8dc8e47eb64fe282d05356ff9,Form,13,0,ESI,7,blank1,160
1655225761,89b9a0e8dc8e47eb64fe282d05356ff9,Form,13,0,ESI,7,blank2,170
1655225761,89b9a0e8dc8e47eb64fe282d05356ff9,Form,13,0,ESI,7,_REACTION_TIME_,16478
1655225761,89b9a0e8dc8e47eb64fe282d05356ff9,Form,12,0,ESI,6,blank1,11500
1655225761,89b9a0e8dc8e47eb64fe282d05356ff9,Form,12,0,ESI,6,blank2,12500
1655225761,89b9a0e8dc8e47eb64fe282d05356ff9,Form,12,0,ESI,6,_REACTION_TIME_,21624
1655225761,89b9a0e8dc8e47eb64fe282d05356ff9,Form,63,0,ESI,57,blank1,114
1655225761,89b9a0e8dc8e47eb64fe282d05356ff9,Form,63,0,ESI,57,blank2,184
1655225761,89b9a0e8dc8e47eb64fe282d05356ff9,Form,63,0,ESI,57,_REACTION_TIME_,20558
1655225761,89b9a0e8dc8e47eb64fe282d05356ff9,Form,23,0,ESI,17,blank1,300
1655225761,89b9a0e8dc8e47eb64fe282d05356ff9,Form,23,0,ESI,17,blank2,500
1655225761,89b9a0e8dc8e47eb64fe282d05356ff9,Form,23,0,ESI,17,_REACTION_TIME_,24377
1655225761,89b9a0e8dc8e47eb64fe282d05356ff9,Form,15,0,ESI,9,blank1,140
1655225761,89b9a0e8dc8e47eb64fe282d05356ff9,Form,15,0,ESI,9,blank2,150
1655225761,89b9a0e8dc8e47eb64fe282d05356ff9,Form,15,0,ESI,9,_REACTION_TIME_,12414
1655225761,89b9a0e8dc8e47eb64fe282d05356ff9,Form,29,0,ESI,23,blank1,100
1655225761,89b9a0e8dc8e47eb64fe282d05356ff9,Form,29,0,ESI,23,blank2,134
1655225761,89b9a0e8dc8e47eb64fe282d05356ff9,Form,29,0,ESI,23,_REACTION_TIME_,16838
1655225761,89b9a0e8dc8e47eb64fe282d05356ff9,Form,58,0,ESI,52,blank1,80
1655225761,89b9a0e8dc8e47eb64fe282d05356ff9,Form,58,0,ESI,52,blank2,119
1655225761,89b9a0e8dc8e47eb64fe282d05356ff9,Form,58,0,ESI,52,_REACTION_TIME_,17795
1655225761,89b9a0e8dc8e47eb64fe282d05356ff9,Form,9,0,ESI,3,blank1,450
1655225761,89b9a0e8dc8e47eb64fe282d05356ff9,Form,9,0,ESI,3,blank2,475
1655225761,89b9a0e8dc8e47eb64fe282d05356ff9,Form,9,0,ESI,3,_REACTION_TIME_,22418
1655225761,89b9a0e8dc8e47eb64fe282d05356ff9,Form,62,0,ESI,56,blank1,9688
1655225761,89b9a0e8dc8e47eb64fe282d05356ff9,Form,62,0,ESI,56,blank2,14532
1655225761,89b9a0e8dc8e47eb64fe282d05356ff9,Form,62,0,ESI,56,_REACTION_TIME_,16035
1655225761,89b9a0e8dc8e47eb64fe282d05356ff9,Form,67,0,filler1,NULL,blank1,65
1655225761,89b9a0e8dc8e47eb64fe282d05356ff9,Form,67,0,filler1,NULL,blank2,75
1655225761,89b9a0e8dc8e47eb64fe282d05356ff9,Form,67,0,filler1,NULL,_REACTION_TIME_,23904
1655225761,89b9a0e8dc8e47eb64fe282d05356ff9,Form,61,0,ESI,55,blank1,1041
1655225761,89b9a0e8dc8e47eb64fe282d05356ff9,Form,61,0,ESI,55,blank2,1560
1655225761,89b9a0e8dc8e47eb64fe282d05356ff9,Form,61,0,ESI,55,_REACTION_TIME_,16076
1655225761,89b9a0e8dc8e47eb64fe282d05356ff9,Form,65,0,ESI,59,blank1,49
1655225761,89b9a0e8dc8e47eb64fe282d05356ff9,Form,65,0,ESI,59,blank2,80
1655225761,89b9a0e8dc8e47eb64fe282d05356ff9,Form,65,0,ESI,59,_REACTION_TIME_,10759
1655225761,89b9a0e8dc8e47eb64fe282d05356ff9,Form,47,0,ESI,41,blank1,50
1655225761,89b9a0e8dc8e47eb64fe282d05356ff9,Form,47,0,ESI,41,blank2,79
1655225761,89b9a0e8dc8e47eb64fe282d05356ff9,Form,47,0,ESI,41,_REACTION_TIME_,15176
1655225761,89b9a0e8dc8e47eb64fe282d05356ff9,Form,7,0,ESI,1,blank1,35
1655225761,89b9a0e8dc8e47eb64fe282d05356ff9,Form,7,0,ESI,1,blank2,37
1655225761,89b9a0e8dc8e47eb64fe282d05356ff9,Form,7,0,ESI,1,_REACTION_TIME_,18010
1655225761,89b9a0e8dc8e47eb64fe282d05356ff9,Form,49,0,ESI,43,blank1,50
1655225761,89b9a0e8dc8e47eb64fe282d05356ff9,Form,49,0,ESI,43,blank2,95
1655225761,89b9a0e8dc8e47eb64fe282d05356ff9,Form,49,0,ESI,43,_REACTION_TIME_,17747
1655225761,89b9a0e8dc8e47eb64fe282d05356ff9,Form,36,0,ESI,30,blank1,356
1655225761,89b9a0e8dc8e47eb64fe282d05356ff9,Form,36,0,ESI,30,blank2,430
1655225761,89b9a0e8dc8e47eb64fe282d05356ff9,Form,36,0,ESI,30,_REACTION_TIME_,14055
1655225761,89b9a0e8dc8e47eb64fe282d05356ff9,Form,42,0,ESI,36,blank1,70
1655225761,89b9a0e8dc8e47eb64fe282d05356ff9,Form,42,0,ESI,36,blank2,106
1655225761,89b9a0e8dc8e47eb64fe282d05356ff9,Form,42,0,ESI,36,_REACTION_TIME_,20536
1655225761,89b9a0e8dc8e47eb64fe282d05356ff9,Form,37,0,ESI,31,blank1,44
1655225761,89b9a0e8dc8e47eb64fe282d05356ff9,Form,37,0,ESI,31,blank2,75
1655225761,89b9a0e8dc8e47eb64fe282d05356ff9,Form,37,0,ESI,31,_REACTION_TIME_,21381
1655225761,89b9a0e8dc8e47eb64fe282d05356ff9,Form,11,0,ESI,5,blank1,2500
1655225761,89b9a0e8dc8e47eb64fe282d05356ff9,Form,11,0,ESI,5,blank2,2600
1655225761,89b9a0e8dc8e47eb64fe282d05356ff9,Form,11,0,ESI,5,_REACTION_TIME_,19824
1655225761,89b9a0e8dc8e47eb64fe282d05356ff9,Form,18,0,ESI,12,blank1,240
1655225761,89b9a0e8dc8e47eb64fe282d05356ff9,Form,18,0,ESI,12,blank2,260
1655225761,89b9a0e8dc8e47eb64fe282d05356ff9,Form,18,0,ESI,12,_REACTION_TIME_,19889
1655225761,89b9a0e8dc8e47eb64fe282d05356ff9,Form,56,0,ESI,50,blank1,201
1655225761,89b9a0e8dc8e47eb64fe282d05356ff9,Form,56,0,ESI,50,blank2,280
1655225761,89b9a0e8dc8e47eb64fe282d05356ff9,Form,56,0,ESI,50,_REACTION_TIME_,16216
1655225761,89b9a0e8dc8e47eb64fe282d05356ff9,Form,52,0,ESI,46,blank1,57
1655225761,89b9a0e8dc8e47eb64fe282d05356ff9,Form,52,0,ESI,46,blank2,80
1655225761,89b9a0e8dc8e47eb64fe282d05356ff9,Form,52,0,ESI,46,_REACTION_TIME_,17461
1655225761,89b9a0e8dc8e47eb64fe282d05356ff9,Form,25,0,ESI,19,blank1,100
1655225761,89b9a0e8dc8e47eb64fe282d05356ff9,Form,25,0,ESI,19,blank2,140
1655225761,89b9a0e8dc8e47eb64fe282d05356ff9,Form,25,0,ESI,19,_REACTION_TIME_,13514
1655225761,89b9a0e8dc8e47eb64fe282d05356ff9,Form,14,0,ESI,8,blank1,350
1655225761,89b9a0e8dc8e47eb64fe282d05356ff9,Form,14,0,ESI,8,blank2,370
1655225761,89b9a0e8dc8e47eb64fe282d05356ff9,Form,14,0,ESI,8,_REACTION_TIME_,14924
1655225761,89b9a0e8dc8e47eb64fe282d05356ff9,Form,19,0,ESI,13,blank1,1
1655225761,89b9a0e8dc8e47eb64fe282d05356ff9,Form,19,0,ESI,13,blank2,20
1655225761,89b9a0e8dc8e47eb64fe282d05356ff9,Form,19,0,ESI,13,_REACTION_TIME_,10590
1655225761,89b9a0e8dc8e47eb64fe282d05356ff9,Form,8,0,ESI,2,blank1,330
1655225761,89b9a0e8dc8e47eb64fe282d05356ff9,Form,8,0,ESI,2,blank2,360
1655225761,89b9a0e8dc8e47eb64fe282d05356ff9,Form,8,0,ESI,2,_REACTION_TIME_,16438
1655225761,89b9a0e8dc8e47eb64fe282d05356ff9,Form,39,0,ESI,33,blank1,30
1655225761,89b9a0e8dc8e47eb64fe282d05356ff9,Form,39,0,ESI,33,blank2,35
1655225761,89b9a0e8dc8e47eb64fe282d05356ff9,Form,39,0,ESI,33,_REACTION_TIME_,20120
1655225761,89b9a0e8dc8e47eb64fe282d05356ff9,Form,45,0,ESI,39,blank1,140
1655225761,89b9a0e8dc8e47eb64fe282d05356ff9,Form,45,0,ESI,39,blank2,170
1655225761,89b9a0e8dc8e47eb64fe282d05356ff9,Form,45,0,ESI,39,_REACTION_TIME_,14558
1655225761,89b9a0e8dc8e47eb64fe282d05356ff9,Form,38,0,ESI,32,blank1,25
1655225761,89b9a0e8dc8e47eb64fe282d05356ff9,Form,38,0,ESI,32,blank2,32
1655225761,89b9a0e8dc8e47eb64fe282d05356ff9,Form,38,0,ESI,32,_REACTION_TIME_,12526
1655225761,89b9a0e8dc8e47eb64fe282d05356ff9,Form,16,0,ESI,10,blank1,130
1655225761,89b9a0e8dc8e47eb64fe282d05356ff9,Form,16,0,ESI,10,blank2,150
1655225761,89b9a0e8dc8e47eb64fe282d05356ff9,Form,16,0,ESI,10,_REACTION_TIME_,17142
1655225761,89b9a0e8dc8e47eb64fe282d05356ff9,Form,69,0,filler3,NULL,blank1,4001
1655225761,89b9a0e8dc8e47eb64fe282d05356ff9,Form,69,0,filler3,NULL,blank2,5500
1655225761,89b9a0e8dc8e47eb64fe282d05356ff9,Form,69,0,filler3,NULL,_REACTION_TIME_,21115
1655225761,89b9a0e8dc8e47eb64fe282d05356ff9,Form,22,0,ESI,16,blank1,160
1655225761,89b9a0e8dc8e47eb64fe282d05356ff9,Form,22,0,ESI,16,blank2,200
1655225761,89b9a0e8dc8e47eb64fe282d05356ff9,Form,22,0,ESI,16,_REACTION_TIME_,15920
1655225761,89b9a0e8dc8e47eb64fe282d05356ff9,Form,48,0,ESI,42,blank1,80
1655225761,89b9a0e8dc8e47eb64fe282d05356ff9,Form,48,0,ESI,42,blank2,120
1655225761,89b9a0e8dc8e47eb64fe282d05356ff9,Form,48,0,ESI,42,_REACTION_TIME_,11744
1655225761,89b9a0e8dc8e47eb64fe282d05356ff9,Form,20,0,ESI,14,blank1,250
1655225761,89b9a0e8dc8e47eb64fe282d05356ff9,Form,20,0,ESI,14,blank2,280
1655225761,89b9a0e8dc8e47eb64fe282d05356ff9,Form,20,0,ESI,14,_REACTION_TIME_,12404
1655225761,89b9a0e8dc8e47eb64fe282d05356ff9,Form,32,0,ESI,26,blank1,181
1655225761,89b9a0e8dc8e47eb64fe282d05356ff9,Form,32,0,ESI,26,blank2,250
1655225761,89b9a0e8dc8e47eb64fe282d05356ff9,Form,32,0,ESI,26,_REACTION_TIME_,10321
1655225761,89b9a0e8dc8e47eb64fe282d05356ff9,Form,51,0,ESI,45,blank1,50
1655225761,89b9a0e8dc8e47eb64fe282d05356ff9,Form,51,0,ESI,45,blank2,121
1655225761,89b9a0e8dc8e47eb64fe282d05356ff9,Form,51,0,ESI,45,_REACTION_TIME_,13542
1655225761,89b9a0e8dc8e47eb64fe282d05356ff9,Form,54,0,ESI,48,blank1,186
1655225761,89b9a0e8dc8e47eb64fe282d05356ff9,Form,54,0,ESI,48,blank2,250
1655225761,89b9a0e8dc8e47eb64fe282d05356ff9,Form,54,0,ESI,48,_REACTION_TIME_,13433
1655225761,89b9a0e8dc8e47eb64fe282d05356ff9,Form,66,0,ESI,60,blank1,113
1655225761,89b9a0e8dc8e47eb64fe282d05356ff9,Form,66,0,ESI,60,blank2,184
1655225761,89b9a0e8dc8e47eb64fe282d05356ff9,Form,66,0,ESI,60,_REACTION_TIME_,12618
1655225761,89b9a0e8dc8e47eb64fe282d05356ff9,Form,33,0,ESI,27,blank1,10
1655225761,89b9a0e8dc8e47eb64fe282d05356ff9,Form,33,0,ESI,27,blank2,48
1655225761,89b9a0e8dc8e47eb64fe282d05356ff9,Form,33,0,ESI,27,_REACTION_TIME_,13858
1655225761,89b9a0e8dc8e47eb64fe282d05356ff9,Form,53,0,ESI,47,blank1,79
1655225761,89b9a0e8dc8e47eb64fe282d05356ff9,Form,53,0,ESI,47,blank2,40
1655225761,89b9a0e8dc8e47eb64fe282d05356ff9,Form,53,0,ESI,47,_REACTION_TIME_,16246
1655225761,89b9a0e8dc8e47eb64fe282d05356ff9,Form,30,0,ESI,24,blank1,68
1655225761,89b9a0e8dc8e47eb64fe282d05356ff9,Form,30,0,ESI,24,blank2,76
1655225761,89b9a0e8dc8e47eb64fe282d05356ff9,Form,30,0,ESI,24,_REACTION_TIME_,12176
1655225761,89b9a0e8dc8e47eb64fe282d05356ff9,Form,34,0,ESI,28,blank1,248
1655225761,89b9a0e8dc8e47eb64fe282d05356ff9,Form,34,0,ESI,28,blank2,320
1655225761,89b9a0e8dc8e47eb64fe282d05356ff9,Form,34,0,ESI,28,_REACTION_TIME_,13248
1655225761,89b9a0e8dc8e47eb64fe282d05356ff9,Form,10,0,ESI,4,blank1,350
1655225761,89b9a0e8dc8e47eb64fe282d05356ff9,Form,10,0,ESI,4,blank2,370
1655225761,89b9a0e8dc8e47eb64fe282d05356ff9,Form,10,0,ESI,4,_REACTION_TIME_,13227
1655225761,89b9a0e8dc8e47eb64fe282d05356ff9,Form,64,0,ESI,58,blank1,20
1655225761,89b9a0e8dc8e47eb64fe282d05356ff9,Form,64,0,ESI,58,blank2,35
1655225761,89b9a0e8dc8e47eb64fe282d05356ff9,Form,64,0,ESI,58,_REACTION_TIME_,13948
1655225761,89b9a0e8dc8e47eb64fe282d05356ff9,Form,41,0,ESI,35,blank1,400
1655225761,89b9a0e8dc8e47eb64fe282d05356ff9,Form,41,0,ESI,35,blank2,600
1655225761,89b9a0e8dc8e47eb64fe282d05356ff9,Form,41,0,ESI,35,_REACTION_TIME_,17325
1655225761,89b9a0e8dc8e47eb64fe282d05356ff9,Form,43,0,ESI,37,blank1,6336
1655225761,89b9a0e8dc8e47eb64fe282d05356ff9,Form,43,0,ESI,37,blank2,9000
1655225761,89b9a0e8dc8e47eb64fe282d05356ff9,Form,43,0,ESI,37,_REACTION_TIME_,21783
1655225761,89b9a0e8dc8e47eb64fe282d05356ff9,Form,31,0,ESI,25,blank1,60
1655225761,89b9a0e8dc8e47eb64fe282d05356ff9,Form,31,0,ESI,25,blank2,120
1655225761,89b9a0e8dc8e47eb64fe282d05356ff9,Form,31,0,ESI,25,_REACTION_TIME_,12402
1655225761,89b9a0e8dc8e47eb64fe282d05356ff9,Form,40,0,ESI,34,blank1,16
1655225761,89b9a0e8dc8e47eb64fe282d05356ff9,Form,40,0,ESI,34,blank2,17
1655225761,89b9a0e8dc8e47eb64fe282d05356ff9,Form,40,0,ESI,34,_REACTION_TIME_,26298
1655225761,89b9a0e8dc8e47eb64fe282d05356ff9,Form,35,0,ESI,29,blank1,64
1655225761,89b9a0e8dc8e47eb64fe282d05356ff9,Form,35,0,ESI,29,blank2,134
1655225761,89b9a0e8dc8e47eb64fe282d05356ff9,Form,35,0,ESI,29,_REACTION_TIME_,14057
1655225761,89b9a0e8dc8e47eb64fe282d05356ff9,Form,50,0,ESI,44,blank1,16
1655225761,89b9a0e8dc8e47eb64fe282d05356ff9,Form,50,0,ESI,44,blank2,21
1655225761,89b9a0e8dc8e47eb64fe282d05356ff9,Form,50,0,ESI,44,_REACTION_TIME_,13894
1655225761,89b9a0e8dc8e47eb64fe282d05356ff9,Form,59,0,ESI,53,blank1,1661
1655225761,89b9a0e8dc8e47eb64fe282d05356ff9,Form,59,0,ESI,53,blank2,2500
1655225761,89b9a0e8dc8e47eb64fe282d05356ff9,Form,59,0,ESI,53,_REACTION_TIME_,19111
1655225761,89b9a0e8dc8e47eb64fe282d05356ff9,Form,28,0,ESI,22,blank1,96
1655225761,89b9a0e8dc8e47eb64fe282d05356ff9,Form,28,0,ESI,22,blank2,120
1655225761,89b9a0e8dc8e47eb64fe282d05356ff9,Form,28,0,ESI,22,_REACTION_TIME_,14248
1655225761,89b9a0e8dc8e47eb64fe282d05356ff9,Form,68,0,filler2,NULL,blank1,51
1655225761,89b9a0e8dc8e47eb64fe282d05356ff9,Form,68,0,filler2,NULL,blank2,65
1655225761,89b9a0e8dc8e47eb64fe282d05356ff9,Form,68,0,filler2,NULL,_REACTION_TIME_,15098
1655225761,89b9a0e8dc8e47eb64fe282d05356ff9,Form,2,0,brexit,NULL,prolific_id,5cdae588cc071e001a1cbbf0
1655225761,89b9a0e8dc8e47eb64fe282d05356ff9,Form,2,0,brexit,NULL,completion_code,634BCF6E
1655225761,89b9a0e8dc8e47eb64fe282d05356ff9,Form,2,0,brexit,NULL,_REACTION_TIME_,40712
#
# Results on Tue, 14 Jun 2022 17:01:16 GMT
# USER AGENT: Mozilla/5.0 (X11; Linux x86_64) AppleWebKit/537.36 (KHTML, like Gecko) Chrome/102.0.0.0 Safari/537.36
# Design number was non-random = 4
#
# Columns below this comment are as follows:
# 1. Results reception time.
# 2. MD5 hash of participant's IP address.
# 3. Controller name.
# 4. Order number of item.
# 5. Inner element number.
# 6. Label.
# 7. Latin Square Group.
# 8. Field name.
# 9. Field value.
1655226076,536c97c03ba5a66e11f4905fa9a519ac,Form,1,0,consent,NULL,consent,yes
1655226076,536c97c03ba5a66e11f4905fa9a519ac,Form,1,0,consent,NULL,_REACTION_TIME_,9018
1655226076,536c97c03ba5a66e11f4905fa9a519ac,Form,4,0,introfirst,NULL,ID,5d0fc3b267111c001a633eb8
1655226076,536c97c03ba5a66e11f4905fa9a519ac,Form,4,0,introfirst,NULL,age,31
1655226076,536c97c03ba5a66e11f4905fa9a519ac,Form,4,0,introfirst,NULL,natlang,english
1655226076,536c97c03ba5a66e11f4905fa9a519ac,Form,4,0,introfirst,NULL,state,virginia
1655226076,536c97c03ba5a66e11f4905fa9a519ac,Form,4,0,introfirst,NULL,parentlang,english
1655226076,536c97c03ba5a66e11f4905fa9a519ac,Form,4,0,introfirst,NULL,domlang,english
1655226076,536c97c03ba5a66e11f4905fa9a519ac,Form,4,0,introfirst,NULL,otherlang,no
1655226076,536c97c03ba5a66e11f4905fa9a519ac,Form,4,0,introfirst,NULL,gender,male
1655226076,536c97c03ba5a66e11f4905fa9a519ac,Form,4,0,introfirst,NULL,_REACTION_TIME_,36833
1655226076,536c97c03ba5a66e11f4905fa9a519ac,Form,5,0,intro,NULL,question1,one
1655226076,536c97c03ba5a66e11f4905fa9a519ac,Form,5,0,intro,NULL,_REACTION_TIME_,33155
1655226076,536c97c03ba5a66e11f4905fa9a519ac,Form,54,0,ESI,48,blank1,113
1655226076,536c97c03ba5a66e11f4905fa9a519ac,Form,54,0,ESI,48,blank2,185
1655226076,536c97c03ba5a66e11f4905fa9a519ac,Form,54,0,ESI,48,_REACTION_TIME_,28124
1655226076,536c97c03ba5a66e11f4905fa9a519ac,Form,35,0,ESI,29,blank1,0
1655226076,536c97c03ba5a66e11f4905fa9a519ac,Form,35,0,ESI,29,blank2,134
1655226076,536c97c03ba5a66e11f4905fa9a519ac,Form,35,0,ESI,29,_REACTION_TIME_,12693
1655226076,536c97c03ba5a66e11f4905fa9a519ac,Form,38,0,ESI,32,blank1,15
1655226076,536c97c03ba5a66e11f4905fa9a519ac,Form,38,0,ESI,32,blank2,39
1655226076,536c97c03ba5a66e11f4905fa9a519ac,Form,38,0,ESI,32,_REACTION_TIME_,15069
1655226076,536c97c03ba5a66e11f4905fa9a519ac,Form,19,0,ESI,13,blank1,0
1655226076,536c97c03ba5a66e11f4905fa9a519ac,Form,19,0,ESI,13,blank2,15
1655226076,536c97c03ba5a66e11f4905fa9a519ac,Form,19,0,ESI,13,_REACTION_TIME_,8541
1655226076,536c97c03ba5a66e11f4905fa9a519ac,Form,24,0,ESI,18,blank1,100
1655226076,536c97c03ba5a66e11f4905fa9a519ac,Form,24,0,ESI,18,blank2,200
1655226076,536c97c03ba5a66e11f4905fa9a519ac,Form,24,0,ESI,18,_REACTION_TIME_,9173
1655226076,536c97c03ba5a66e11f4905fa9a519ac,Form,63,0,ESI,57,blank1,185
1655226076,536c97c03ba5a66e11f4905fa9a519ac,Form,63,0,ESI,57,blank2,200
1655226076,536c97c03ba5a66e11f4905fa9a519ac,Form,63,0,ESI,57,_REACTION_TIME_,16949
1655226076,536c97c03ba5a66e11f4905fa9a519ac,Form,50,0,ESI,44,blank1,10
1655226076,536c97c03ba5a66e11f4905fa9a519ac,Form,50,0,ESI,44,blank2,15
1655226076,536c97c03ba5a66e11f4905fa9a519ac,Form,50,0,ESI,44,_REACTION_TIME_,12844
